{
  "resourceType": "Bundle",
  "id": "633c9d030968f8012250fc71",
  "type": "transaction",
  "entry": [ {
    "fullUrl": "https://madie.cms.gov/Patient/de0b5b09-c285-4e02-b82c-ad23eb00febf",
    "resource": {
      "resourceType": "Patient",
      "id": "de0b5b09-c285-4e02-b82c-ad23eb00febf",
      "meta": {
        "profile": [ "http://hl7.org/fhir/us/qicore/StructureDefinition/qicore-patient" ]
      },
      "text": {
        "status": "generated",
        "div": "<div xmlns=\"http://www.w3.org/1999/xhtml\"><div class=\"hapiHeaderText\">Age=18ondayOfEnc <b>IPPPASS </b></div><table class=\"hapiPropertyTable\"><tbody><tr><td>Identifier</td><td>384b0a61298e7a9ca56a87b5bee0a043</td></tr><tr><td>Date of birth</td><td><span>08 February 1994</span></td></tr></tbody></table></div>"
      },
      "extension": [ {
        "url": "http://hl7.org/fhir/us/core/StructureDefinition/us-core-race",
        "extension": [ {
          "url": "ombCategory",
          "valueCoding": {
            "system": "urn:oid:2.16.840.1.113883.6.238",
            "code": "1002-5",
            "display": "American Indian or Alaska Native",
            "userSelected": true
          }
        }, {
          "url": "text",
          "valueString": "American Indian or Alaska Native"
        } ]
      }, {
        "url": "http://hl7.org/fhir/us/core/StructureDefinition/us-core-ethnicity",
        "extension": [ {
          "url": "ombCategory",
          "valueCoding": {
            "system": "urn:oid:2.16.840.1.113883.6.238",
            "code": "2135-2",
            "display": "Hispanic or Latino",
            "userSelected": true
          }
        }, {
          "url": "text",
          "valueString": "Hispanic or Latino"
        } ]
      } ],
      "identifier": [ {
        "type": {
          "coding": [ {
            "system": "http://terminology.hl7.org/CodeSystem/v2-0203",
            "code": "MR"
          } ]
        },
        "system": "https://bonnie-fhir.healthit.gov/",
        "value": "633c9d030968f8012250fc71"
      } ],
      "active": true,
      "name": [ {
        "use": "usual",
        "family": "IPPPass",
        "given": [ "Ageeq18" ]
      } ],
      "gender": "male",
      "birthDate": "2007-02-08"
    },
    "request": {
      "method": "PUT",
      "url": "Patient/de0b5b09-c285-4e02-b82c-ad23eb00febf"
    }
  }, {
    "fullUrl": "https://madie.cms.gov/Encounter/53066137-9c7c-4f2f-b450-4e1c214a6bec",
    "resource": {
      "resourceType": "Encounter",
      "id": "53066137-9c7c-4f2f-b450-4e1c214a6bec",
      "meta": {
        "profile": [ "http://hl7.org/fhir/us/qicore/StructureDefinition/qicore-encounter" ]
      },
      "status": "finished",
      "class": {
        "system": "http://terminology.hl7.org/CodeSystem/v3-ActCode",
        "code": "IMP",
        "display": "inpatient encounter"
      },
      "type": [ {
        "coding": [ {
          "system": "http://snomed.info/sct",
          "code": "32485007"
        } ]
      } ],
      "subject": {
        "reference": "Patient/de0b5b09-c285-4e02-b82c-ad23eb00febf"
      },
      "period": {
        "start": "2026-02-08T08:00:00.000Z",
        "end": "2026-02-10T08:15:00.000Z"
      },
      "length": {
        "value": 2,
        "unit": "days"
      },
      "diagnosis": [ {
        "condition": {
          "reference": "Condition/b596eeba-d294-42fa-bd96-55b6a7dabe07"
        },
        "use": {
          "coding": [ {
            "system": "http://terminology.hl7.org/CodeSystem/diagnosis-role",
            "code": "billing",
            "display": "Billing"
          } ]
        },
        "rank": 1
      } ]
    },
    "request": {
      "method": "PUT",
      "url": "Encounter/53066137-9c7c-4f2f-b450-4e1c214a6bec"
    }
  }, {
    "fullUrl": "https://madie.cms.gov/Claim/667c5891-d225-4a5a-ab37-9f5d70987f5f",
    "resource": {
      "resourceType": "Claim",
      "id": "667c5891-d225-4a5a-ab37-9f5d70987f5f",
      "meta": {
        "profile": [ "http://hl7.org/fhir/us/qicore/StructureDefinition/qicore-claim" ]
      },
      "status": "active",
      "type": {
        "coding": [ {
          "system": "http://terminology.hl7.org/CodeSystem/claim-type",
          "code": "institutional"
        } ]
      },
      "use": "claim",
      "patient": {
        "reference": "Patient/de0b5b09-c285-4e02-b82c-ad23eb00febf"
      },
      "created": "2026-12-01",
      "provider": {
        "reference": "Practitioner/86362a4c-4db5-4baf-b645-76a43aa22202"
      },
      "priority": {
        "coding": [ {
          "system": "http://terminology.hl7.org/CodeSystem/processpriority",
          "code": "normal"
        } ]
      },
      "diagnosis": [ {
        "sequence": 1,
        "diagnosisCodeableConcept": {
          "coding": [ {
            "system": "http://hl7.org/fhir/sid/icd-10-cm",
            "code": "I63.00"
          } ]
        },
        "type": [ {
          "coding": [ {
            "system": "http://terminology.hl7.org/CodeSystem/ex-diagnosistype",
            "code": "principal"
          } ]
        } ]
      } ],
      "insurance": [ {
        "sequence": 1,
        "focal": true,
        "coverage": {
          "reference": "Coverage/5fa041661c76ba66d9959367"
        }
      } ],
      "item": [ {
        "sequence": 1,
        "diagnosisSequence": [ 1 ],
        "productOrService": {
          "coding": [ {
            "system": "http://terminology.hl7.org/CodeSystem/ex-USCLS",
            "code": "99555"
          } ]
        },
        "encounter": [ {
          "reference": "Encounter/53066137-9c7c-4f2f-b450-4e1c214a6bec"
        } ]
      } ]
    },
    "request": {
      "method": "PUT",
      "url": "Claim/667c5891-d225-4a5a-ab37-9f5d70987f5f"
    }
  }, {
    "fullUrl": "https://madie.cms.gov/Coverage/545fc342-48c3-4f94-b6d0-0716f3e0a5ec",
    "resource": {
      "resourceType": "Coverage",
      "id": "545fc342-48c3-4f94-b6d0-0716f3e0a5ec",
      "status": "active",
      "beneficiary": {
        "reference": "Patient/de0b5b09-c285-4e02-b82c-ad23eb00febf"
      },
      "period": {
        "start": "1995-02-08T08:00:00.000Z"
      },
      "payor": [ {
        "reference": "Organization/8d66b1e6-e47b-4316-8281-bcdcf0688931"
      } ]
    },
    "request": {
      "method": "PUT",
      "url": "Coverage/545fc342-48c3-4f94-b6d0-0716f3e0a5ec"
    }
  }, {
    "fullUrl": "https://madie.cms.gov/Condition/b596eeba-d294-42fa-bd96-55b6a7dabe07",
    "resource": {
      "resourceType": "Condition",
      "id": "b596eeba-d294-42fa-bd96-55b6a7dabe07",
      "meta": {
        "profile": [ "http://hl7.org/fhir/us/qicore/StructureDefinition/qicore-condition-encounter-diagnosis" ]
      },
      "clinicalStatus": {
        "coding": [ {
          "system": "http://terminology.hl7.org/CodeSystem/condition-clinical",
          "code": "active"
        } ]
      },
      "verificationStatus": {
        "coding": [ {
          "system": "http://terminology.hl7.org/CodeSystem/condition-ver-status",
          "code": "confirmed"
        } ]
      },
      "category": [ {
        "coding": [ {
          "system": "http://terminology.hl7.org/CodeSystem/condition-category",
          "code": "encounter-diagnosis",
          "display": "Encounter Diagnosis"
        } ]
      } ],
      "code": {
        "coding": [ {
          "system": "http://snomed.info/sct",
          "version": "2021-09",
          "code": "111297002",
          "display": "Nonparalytic stroke (disorder)",
          "userSelected": true
        } ]
      },
      "subject": {
        "reference": "Patient/de0b5b09-c285-4e02-b82c-ad23eb00febf"
      },
      "recordedDate": "2026-10-13T08:00:00.000Z"
    },
    "request": {
      "method": "PUT",
      "url": "Condition/b596eeba-d294-42fa-bd96-55b6a7dabe07"
    }
  }, {
    "fullUrl": "https://madie.cms.gov/Organization/8d66b1e6-e47b-4316-8281-bcdcf0688931",
    "resource": {
      "resourceType": "Organization",
      "id": "8d66b1e6-e47b-4316-8281-bcdcf0688931",
      "meta": {
        "profile": [ "http://hl7.org/fhir/us/qicore/StructureDefinition/qicore-organization" ]
      },
      "identifier": [ {
        "use": "temp",
        "system": "urn:oid:2.16.840.1.113883.4.4",
        "value": "21-3259825"
      } ],
      "active": true,
      "type": [ {
        "coding": [ {
          "system": "http://terminology.hl7.org/CodeSystem/organization-type",
          "code": "pay",
          "display": "Payer"
        } ]
      } ],
      "name": "Blue Cross Blue Shield of Texas",
      "telecom": [ {
        "system": "phone",
        "value": "(+1) 972-766-6900"
      } ],
      "address": [ {
        "use": "billing",
        "type": "postal",
        "line": [ "P.O. Box 660044" ],
        "city": "Dallas",
        "state": "TX",
        "postalCode": "75266-0044",
        "country": "USA"
      } ]
    },
    "request": {
      "method": "PUT",
      "url": "Organization/8d66b1e6-e47b-4316-8281-bcdcf0688931"
    }
  }, {
    "fullUrl": "https://madie.cms.gov/Practitioner/86362a4c-4db5-4baf-b645-76a43aa22202",
    "resource": {
      "resourceType": "Practitioner",
      "id": "86362a4c-4db5-4baf-b645-76a43aa22202",
      "meta": {
        "profile": [ "http://hl7.org/fhir/us/qicore/StructureDefinition/qicore-practitioner" ]
      },
      "identifier": [ {
        "system": "http://hl7.org/fhir/sid/us-npi",
        "value": "9999999896"
      } ],
      "name": [ {
        "family": "Evil",
        "prefix": [ "Dr" ]
      } ]
    },
    "request": {
      "method": "PUT",
      "url": "Practitioner/86362a4c-4db5-4baf-b645-76a43aa22202"
    }
  }, {
    "fullUrl": "https://madie.cms.gov/MeasureReport/9691eeac-5b2b-4cb9-b03c-bebe885a2cf1",
    "resource": {
      "resourceType": "MeasureReport",
      "id": "9691eeac-5b2b-4cb9-b03c-bebe885a2cf1",
      "meta": {
        "profile": [ "http://hl7.org/fhir/us/cqfmeasures/StructureDefinition/test-case-cqfm" ]
      },
      "contained": [ {
        "resourceType": "Parameters",
        "id": "a2f4e319-d34d-4adf-b011-e30954e59026-parameters",
        "parameter": [ {
          "name": "subject",
          "valueString": "de0b5b09-c285-4e02-b82c-ad23eb00febf"
        } ]
      } ],
      "extension": [ {
        "url": "http://hl7.org/fhir/StructureDefinition/cqf-inputParameters",
        "valueReference": {
          "reference": "#a2f4e319-d34d-4adf-b011-e30954e59026-parameters"
        }
      }, {
        "url": "http://hl7.org/fhir/us/cqfmeasures/StructureDefinition/cqfm-testCaseDescription",
        "valueMarkdown": "Principal diagnosis = ischemic stroke, patient turns 18 on OccurA starts\n"
      } ],
      "modifierExtension": [ {
        "url": "http://hl7.org/fhir/us/cqfmeasures/StructureDefinition/cqfm-isTestCase",
        "valueBoolean": true
      } ],
      "status": "complete",
      "type": "individual",
      "measure": "https://madie.cms.gov/Measure/CMS71FHIRSTKAnticoagAFFlutter",
      "period": {
        "start": "2026-01-01",
        "end": "2026-12-31"
      },
      "group": [ {
        "id": "Group_1",
        "population": [ {
          "id": "InitialPopulation_1",
          "code": {
            "coding": [ {
              "system": "http://terminology.hl7.org/CodeSystem/measure-population",
              "code": "initial-population",
              "display": "Initial Population"
            } ]
          },
          "count": 1
        }, {
          "id": "Denominator_1",
          "code": {
            "coding": [ {
              "system": "http://terminology.hl7.org/CodeSystem/measure-population",
              "code": "denominator",
              "display": "Denominator"
            } ]
          },
          "count": 0
        }, {
          "id": "DenominatorExclusion_1",
          "code": {
            "coding": [ {
              "system": "http://terminology.hl7.org/CodeSystem/measure-population",
              "code": "denominator-exclusion",
              "display": "Denominator Exclusion"
            } ]
          },
          "count": 0
        }, {
          "id": "Numerator_1",
          "code": {
            "coding": [ {
              "system": "http://terminology.hl7.org/CodeSystem/measure-population",
              "code": "numerator",
              "display": "Numerator"
            } ]
          },
          "count": 0
        }, {
          "id": "DenominatorException_1",
          "code": {
            "coding": [ {
              "system": "http://terminology.hl7.org/CodeSystem/measure-population",
              "code": "denominator-exception",
              "display": "Denominator Exception"
            } ]
          },
          "count": 0
        } ],
        "measureScore": {
          "value": 0.0
        }
      } ],
      "evaluatedResource": [ {
        "reference": "Patient/de0b5b09-c285-4e02-b82c-ad23eb00febf"
      }, {
        "reference": "Encounter/53066137-9c7c-4f2f-b450-4e1c214a6bec"
      }, {
        "reference": "Claim/667c5891-d225-4a5a-ab37-9f5d70987f5f"
      }, {
        "reference": "Coverage/545fc342-48c3-4f94-b6d0-0716f3e0a5ec"
      }, {
        "reference": "Condition/b596eeba-d294-42fa-bd96-55b6a7dabe07"
      }, {
        "reference": "Organization/8d66b1e6-e47b-4316-8281-bcdcf0688931"
      }, {
        "reference": "Practitioner/86362a4c-4db5-4baf-b645-76a43aa22202"
      } ]
    },
    "request": {
      "method": "PUT",
      "url": "MeasureReport/9691eeac-5b2b-4cb9-b03c-bebe885a2cf1"
    }
  } ]
}