{
  "resourceType": "Bundle",
  "id": "633c9d030968f8012250fc8c",
  "type": "transaction",
  "entry": [ {
    "fullUrl": "https://madie.cms.gov/Patient/9a72ea26-595f-4442-8b00-fc52ed228aa6",
    "resource": {
      "resourceType": "Patient",
      "id": "9a72ea26-595f-4442-8b00-fc52ed228aa6",
      "meta": {
        "profile": [ "http://hl7.org/fhir/us/qicore/StructureDefinition/qicore-patient" ]
      },
      "text": {
        "status": "generated",
        "div": "<div xmlns=\"http://www.w3.org/1999/xhtml\"><div class=\"hapiHeaderText\">MedDCPatRefDuringEncInp <b>DENEXCEPPASS </b></div><table class=\"hapiPropertyTable\"><tbody><tr><td>Identifier</td><td>0c63b215784ea7e3383559263b15cd7e</td></tr><tr><td>Date of birth</td><td><span>23 May 1954</span></td></tr></tbody></table></div>"
      },
      "extension": [ {
        "url": "http://hl7.org/fhir/us/core/StructureDefinition/us-core-race",
        "extension": [ {
          "url": "ombCategory",
          "valueCoding": {
            "system": "urn:oid:2.16.840.1.113883.6.238",
            "code": "1002-5",
            "display": "American Indian or Alaska Native",
            "userSelected": true
          }
        }, {
          "url": "text",
          "valueString": "American Indian or Alaska Native"
        } ]
      }, {
        "url": "http://hl7.org/fhir/us/core/StructureDefinition/us-core-ethnicity",
        "extension": [ {
          "url": "ombCategory",
          "valueCoding": {
            "system": "urn:oid:2.16.840.1.113883.6.238",
            "code": "2135-2",
            "display": "Hispanic or Latino",
            "userSelected": true
          }
        }, {
          "url": "text",
          "valueString": "Hispanic or Latino"
        } ]
      } ],
      "identifier": [ {
        "type": {
          "coding": [ {
            "system": "http://terminology.hl7.org/CodeSystem/v2-0203",
            "code": "MR"
          } ]
        },
        "system": "https://bonnie-fhir.healthit.gov/",
        "value": "633c9d030968f8012250fc8c"
      } ],
      "active": true,
      "name": [ {
        "use": "usual",
        "family": "DENEXCEPPass",
        "given": [ "MedDCPatRefDuringEncInp" ]
      } ],
      "gender": "female",
      "birthDate": "1955-05-23"
    },
    "request": {
      "method": "PUT",
      "url": "Patient/9a72ea26-595f-4442-8b00-fc52ed228aa6"
    }
  }, {
    "fullUrl": "https://madie.cms.gov/Encounter/1d788335-6158-40fb-bbca-f3e97f1a0c76",
    "resource": {
      "resourceType": "Encounter",
      "id": "1d788335-6158-40fb-bbca-f3e97f1a0c76",
      "meta": {
        "profile": [ "http://hl7.org/fhir/us/qicore/StructureDefinition/qicore-encounter" ]
      },
      "status": "finished",
      "class": {
        "system": "http://terminology.hl7.org/CodeSystem/v3-ActCode",
        "code": "IMP",
        "display": "inpatient encounter"
      },
      "type": [ {
        "coding": [ {
          "system": "http://snomed.info/sct",
          "code": "32485007"
        } ]
      } ],
      "subject": {
        "reference": "Patient/9a72ea26-595f-4442-8b00-fc52ed228aa6"
      },
      "period": {
        "start": "2026-11-20T08:00:00.000Z",
        "end": "2026-11-24T08:15:00.000Z"
      },
      "length": {
        "value": 4,
        "unit": "days"
      },
      "reasonReference": [ {
        "reference": "Condition/64f7dcdd-ef94-4ad2-b698-dc1537b34249"
      } ]
    },
    "request": {
      "method": "PUT",
      "url": "Encounter/1d788335-6158-40fb-bbca-f3e97f1a0c76"
    }
  }, {
    "fullUrl": "https://madie.cms.gov/Claim/286004f8-2ad2-4f1c-a992-078a3604b536",
    "resource": {
      "resourceType": "Claim",
      "id": "286004f8-2ad2-4f1c-a992-078a3604b536",
      "meta": {
        "profile": [ "http://hl7.org/fhir/us/qicore/StructureDefinition/qicore-claim" ]
      },
      "status": "active",
      "type": {
        "coding": [ {
          "system": "http://terminology.hl7.org/CodeSystem/claim-type",
          "code": "institutional"
        } ]
      },
      "use": "claim",
      "patient": {
        "reference": "Patient/9a72ea26-595f-4442-8b00-fc52ed228aa6"
      },
      "created": "2026-12-01",
      "provider": {
        "reference": "Practitioner/practitioner-123456"
      },
      "priority": {
        "coding": [ {
          "system": "http://terminology.hl7.org/CodeSystem/processpriority",
          "code": "normal"
        } ]
      },
      "diagnosis": [ {
        "sequence": 1,
        "diagnosisCodeableConcept": {
          "coding": [ {
            "system": "http://hl7.org/fhir/sid/icd-10-cm",
            "code": "I63.00"
          } ]
        },
        "type": [ {
          "coding": [ {
            "system": "http://terminology.hl7.org/CodeSystem/ex-diagnosistype",
            "code": "principal"
          } ]
        } ]
      } ],
      "insurance": [ {
        "sequence": 1,
        "focal": true,
        "coverage": {
          "reference": "Coverage/5fa041661c76ba66d9959367"
        }
      } ],
      "item": [ {
        "sequence": 1,
        "diagnosisSequence": [ 1 ],
        "productOrService": {
          "coding": [ {
            "system": "http://terminology.hl7.org/CodeSystem/ex-USCLS",
            "code": "99555"
          } ]
        },
        "encounter": [ {
          "reference": "Encounter/1d788335-6158-40fb-bbca-f3e97f1a0c76"
        } ]
      } ]
    },
    "request": {
      "method": "PUT",
      "url": "Claim/286004f8-2ad2-4f1c-a992-078a3604b536"
    }
  }, {
    "fullUrl": "https://madie.cms.gov/MedicationRequest/b9fe2aca-f331-43fe-bbdc-49ce96ad557f",
    "resource": {
      "resourceType": "MedicationRequest",
      "id": "b9fe2aca-f331-43fe-bbdc-49ce96ad557f",
      "meta": {
        "profile": [ "http://hl7.org/fhir/us/qicore/StructureDefinition/qicore-medicationrequest" ]
      },
      "status": "active",
      "intent": "order",
      "category": [ {
        "coding": [ {
          "system": "http://terminology.hl7.org/CodeSystem/medicationrequest-category",
          "code": "discharge",
          "userSelected": true
        } ]
      } ],
      "medicationCodeableConcept": {
        "coding": [ {
          "system": "http://www.nlm.nih.gov/research/umls/rxnorm",
          "code": "308351"
        } ]
      },
      "subject": {
        "reference": "Patient/9a72ea26-595f-4442-8b00-fc52ed228aa6"
      },
      "authoredOn": "2026-11-20T08:00:00.000Z",
      "requester": {
        "reference": "Practitioner/example"
      }
    },
    "request": {
      "method": "PUT",
      "url": "MedicationRequest/b9fe2aca-f331-43fe-bbdc-49ce96ad557f"
    }
  }, {
    "fullUrl": "https://madie.cms.gov/Task/938ddf1e-6a0d-44de-be7f-77a9b2b4de45",
    "resource": {
      "resourceType": "Task",
      "id": "938ddf1e-6a0d-44de-be7f-77a9b2b4de45",
      "meta": {
        "profile": [ "http://hl7.org/fhir/us/qicore/StructureDefinition/qicore-taskrejected" ]
      },
      "status": "rejected",
      "statusReason": {
        "coding": [ {
          "system": "http://snomed.info/sct",
          "code": "443390004",
          "display": "Refusal of treatment by patient (situation)",
          "userSelected": true
        } ]
      },
      "intent": "order",
      "code": {
        "coding": [ {
          "system": "http://hl7.org/fhir/CodeSystem/task-code",
          "code": "fulfill"
        } ]
      },
      "focus": {
        "reference": "MedicationRequest/b9fe2aca-f331-43fe-bbdc-49ce96ad557f"
      },
      "executionPeriod": {
        "start": "2026-11-20T08:00:00.000Z",
        "end": "2026-11-24T08:15:00.000Z"
      }
    },
    "request": {
      "method": "PUT",
      "url": "Task/938ddf1e-6a0d-44de-be7f-77a9b2b4de45"
    }
  }, {
    "fullUrl": "https://madie.cms.gov/Coverage/73815b2f-b456-4a35-aa86-1ca80362ae3c",
    "resource": {
      "resourceType": "Coverage",
      "id": "73815b2f-b456-4a35-aa86-1ca80362ae3c",
      "meta": {
        "profile": [ "http://hl7.org/fhir/us/qicore/StructureDefinition/qicore-coverage" ]
      },
      "status": "active",
      "subscriberId": "523435",
      "beneficiary": {
        "reference": "Patient/9a72ea26-595f-4442-8b00-fc52ed228aa6"
      },
      "relationship": {
        "coding": [ {
          "system": "http://terminology.hl7.org/CodeSystem/subscriber-relationship",
          "code": "self"
        } ]
      },
      "payor": [ {
        "reference": "Organization/6f16b5b2-1ba4-4465-b689-080673591ca9"
      } ]
    },
    "request": {
      "method": "PUT",
      "url": "Coverage/73815b2f-b456-4a35-aa86-1ca80362ae3c"
    }
  }, {
    "fullUrl": "https://madie.cms.gov/Procedure/b32b0057-d657-4b5f-b4f5-21c078c5d7e4",
    "resource": {
      "resourceType": "Procedure",
      "id": "b32b0057-d657-4b5f-b4f5-21c078c5d7e4",
      "meta": {
        "profile": [ "http://hl7.org/fhir/us/qicore/StructureDefinition/qicore-procedure" ]
      },
      "extension": [ {
        "url": "http://hl7.org/fhir/us/qicore/StructureDefinition/qicore-recorded",
        "valueDateTime": "2014-04-05T13:35:00.000Z"
      } ],
      "status": "completed",
      "code": {
        "coding": [ {
          "system": "http://www.cms.gov/Medicare/Coding/ICD10",
          "code": "02560ZZ"
        }, {
          "system": "http://snomed.info/sct",
          "code": "175095005"
        } ]
      },
      "subject": {
        "reference": "Patient/9a72ea26-595f-4442-8b00-fc52ed228aa6"
      },
      "performedPeriod": {
        "start": "2026-11-20T06:00:00.000Z",
        "end": "2026-11-20T07:15:00.000Z"
      }
    },
    "request": {
      "method": "PUT",
      "url": "Procedure/b32b0057-d657-4b5f-b4f5-21c078c5d7e4"
    }
  }, {
    "fullUrl": "https://madie.cms.gov/Condition/64f7dcdd-ef94-4ad2-b698-dc1537b34249",
    "resource": {
      "resourceType": "Condition",
      "id": "64f7dcdd-ef94-4ad2-b698-dc1537b34249",
      "meta": {
        "profile": [ "http://hl7.org/fhir/us/qicore/StructureDefinition/qicore-condition-encounter-diagnosis" ]
      },
      "clinicalStatus": {
        "coding": [ {
          "system": "http://terminology.hl7.org/CodeSystem/condition-clinical",
          "code": "active"
        } ]
      },
      "verificationStatus": {
        "coding": [ {
          "system": "http://terminology.hl7.org/CodeSystem/condition-ver-status",
          "code": "confirmed"
        } ]
      },
      "category": [ {
        "coding": [ {
          "system": "http://terminology.hl7.org/CodeSystem/condition-category",
          "code": "encounter-diagnosis",
          "display": "Encounter Diagnosis"
        } ]
      } ],
      "code": {
        "coding": [ {
          "system": "http://snomed.info/sct",
          "version": "2021-09",
          "code": "111297002",
          "display": "Nonparalytic stroke (disorder)",
          "userSelected": true
        } ]
      },
      "subject": {
        "reference": "Patient/9a72ea26-595f-4442-8b00-fc52ed228aa6"
      },
      "recordedDate": "2026-10-13T08:00:00.000Z"
    },
    "request": {
      "method": "PUT",
      "url": "Condition/64f7dcdd-ef94-4ad2-b698-dc1537b34249"
    }
  }, {
    "fullUrl": "https://madie.cms.gov/Organization/6f16b5b2-1ba4-4465-b689-080673591ca9",
    "resource": {
      "resourceType": "Organization",
      "id": "6f16b5b2-1ba4-4465-b689-080673591ca9",
      "meta": {
        "profile": [ "http://hl7.org/fhir/us/qicore/StructureDefinition/qicore-organization" ]
      },
      "identifier": [ {
        "use": "temp",
        "system": "urn:oid:2.16.840.1.113883.4.4",
        "value": "21-3259825"
      } ],
      "active": true,
      "type": [ {
        "coding": [ {
          "system": "http://terminology.hl7.org/CodeSystem/organization-type",
          "code": "pay",
          "display": "Payer"
        } ]
      } ],
      "name": "Blue Cross Blue Shield of Texas",
      "telecom": [ {
        "system": "phone",
        "value": "(+1) 972-766-6900"
      } ],
      "address": [ {
        "use": "billing",
        "type": "postal",
        "line": [ "P.O. Box 660044" ],
        "city": "Dallas",
        "state": "TX",
        "postalCode": "75266-0044",
        "country": "USA"
      } ]
    },
    "request": {
      "method": "PUT",
      "url": "Organization/6f16b5b2-1ba4-4465-b689-080673591ca9"
    }
  }, {
    "fullUrl": "https://madie.cms.gov/MeasureReport/47b2254f-ca43-470b-9229-eeb4071ba6e0",
    "resource": {
      "resourceType": "MeasureReport",
      "id": "47b2254f-ca43-470b-9229-eeb4071ba6e0",
      "meta": {
        "profile": [ "http://hl7.org/fhir/us/cqfmeasures/StructureDefinition/test-case-cqfm" ]
      },
      "contained": [ {
        "resourceType": "Parameters",
        "id": "08f95f25-0916-4596-b896-cc647f725c2a-parameters",
        "parameter": [ {
          "name": "subject",
          "valueString": "9a72ea26-595f-4442-8b00-fc52ed228aa6"
        } ]
      } ],
      "extension": [ {
        "url": "http://hl7.org/fhir/StructureDefinition/cqf-inputParameters",
        "valueReference": {
          "reference": "#08f95f25-0916-4596-b896-cc647f725c2a-parameters"
        }
      }, {
        "url": "http://hl7.org/fhir/us/cqfmeasures/StructureDefinition/cqfm-testCaseDescription",
        "valueMarkdown": "Patient did not receive anticoagulant, patient refused\n"
      } ],
      "modifierExtension": [ {
        "url": "http://hl7.org/fhir/us/cqfmeasures/StructureDefinition/cqfm-isTestCase",
        "valueBoolean": true
      } ],
      "status": "complete",
      "type": "individual",
      "measure": "https://madie.cms.gov/Measure/CMS71FHIRSTKAnticoagAFFlutter",
      "period": {
        "start": "2026-01-01",
        "end": "2026-12-31"
      },
      "group": [ {
        "id": "Group_1",
        "population": [ {
          "id": "InitialPopulation_1",
          "code": {
            "coding": [ {
              "system": "http://terminology.hl7.org/CodeSystem/measure-population",
              "code": "initial-population",
              "display": "Initial Population"
            } ]
          },
          "count": 1
        }, {
          "id": "Denominator_1",
          "code": {
            "coding": [ {
              "system": "http://terminology.hl7.org/CodeSystem/measure-population",
              "code": "denominator",
              "display": "Denominator"
            } ]
          },
          "count": 1
        }, {
          "id": "DenominatorExclusion_1",
          "code": {
            "coding": [ {
              "system": "http://terminology.hl7.org/CodeSystem/measure-population",
              "code": "denominator-exclusion",
              "display": "Denominator Exclusion"
            } ]
          },
          "count": 0
        }, {
          "id": "Numerator_1",
          "code": {
            "coding": [ {
              "system": "http://terminology.hl7.org/CodeSystem/measure-population",
              "code": "numerator",
              "display": "Numerator"
            } ]
          },
          "count": 0
        }, {
          "id": "DenominatorException_1",
          "code": {
            "coding": [ {
              "system": "http://terminology.hl7.org/CodeSystem/measure-population",
              "code": "denominator-exception",
              "display": "Denominator Exception"
            } ]
          },
          "count": 1
        } ],
        "measureScore": {
          "value": 0.0
        }
      } ],
      "evaluatedResource": [ {
        "reference": "Patient/9a72ea26-595f-4442-8b00-fc52ed228aa6"
      }, {
        "reference": "Encounter/1d788335-6158-40fb-bbca-f3e97f1a0c76"
      }, {
        "reference": "Claim/286004f8-2ad2-4f1c-a992-078a3604b536"
      }, {
        "reference": "MedicationRequest/b9fe2aca-f331-43fe-bbdc-49ce96ad557f"
      }, {
        "reference": "Task/938ddf1e-6a0d-44de-be7f-77a9b2b4de45"
      }, {
        "reference": "Coverage/73815b2f-b456-4a35-aa86-1ca80362ae3c"
      }, {
        "reference": "Procedure/b32b0057-d657-4b5f-b4f5-21c078c5d7e4"
      }, {
        "reference": "Condition/64f7dcdd-ef94-4ad2-b698-dc1537b34249"
      }, {
        "reference": "Organization/6f16b5b2-1ba4-4465-b689-080673591ca9"
      } ]
    },
    "request": {
      "method": "PUT",
      "url": "MeasureReport/47b2254f-ca43-470b-9229-eeb4071ba6e0"
    }
  } ]
}