{
  "resourceType": "Bundle",
  "id": "633c9d030968f8012250fc7d",
  "type": "transaction",
  "entry": [ {
    "fullUrl": "https://madie.cms.gov/Patient/f7838ae4-6846-4bc0-a1e9-2002d5f5b357",
    "resource": {
      "resourceType": "Patient",
      "id": "f7838ae4-6846-4bc0-a1e9-2002d5f5b357",
      "meta": {
        "profile": [ "http://hl7.org/fhir/us/qicore/StructureDefinition/qicore-patient" ]
      },
      "text": {
        "status": "generated",
        "div": "<div xmlns=\"http://www.w3.org/1999/xhtml\"><div class=\"hapiHeaderText\">DischargeHomeHospice <b>DENEXPASS </b></div><table class=\"hapiPropertyTable\"><tbody><tr><td>Identifier</td><td>1a0e2fe3bc737b1663e6e968cef6d8b3</td></tr><tr><td>Date of birth</td><td><span>31 July 1969</span></td></tr></tbody></table></div>"
      },
      "extension": [ {
        "url": "http://hl7.org/fhir/us/core/StructureDefinition/us-core-race",
        "extension": [ {
          "url": "ombCategory",
          "valueCoding": {
            "system": "urn:oid:2.16.840.1.113883.6.238",
            "code": "1002-5",
            "display": "American Indian or Alaska Native",
            "userSelected": true
          }
        }, {
          "url": "text",
          "valueString": "American Indian or Alaska Native"
        } ]
      }, {
        "url": "http://hl7.org/fhir/us/core/StructureDefinition/us-core-ethnicity",
        "extension": [ {
          "url": "ombCategory",
          "valueCoding": {
            "system": "urn:oid:2.16.840.1.113883.6.238",
            "code": "2135-2",
            "display": "Hispanic or Latino",
            "userSelected": true
          }
        }, {
          "url": "text",
          "valueString": "Hispanic or Latino"
        } ]
      } ],
      "identifier": [ {
        "type": {
          "coding": [ {
            "system": "http://terminology.hl7.org/CodeSystem/v2-0203",
            "code": "MR"
          } ]
        },
        "system": "https://bonnie-fhir.healthit.gov/",
        "value": "633c9d030968f8012250fc7d"
      } ],
      "active": true,
      "name": [ {
        "use": "usual",
        "family": "DENEXPass",
        "given": [ "DischargeHomeHospice" ]
      } ],
      "gender": "male",
      "birthDate": "1970-07-31"
    },
    "request": {
      "method": "PUT",
      "url": "Patient/f7838ae4-6846-4bc0-a1e9-2002d5f5b357"
    }
  }, {
    "fullUrl": "https://madie.cms.gov/Encounter/5066105f-a7bd-4f3b-89bb-fc7bcb269e5f",
    "resource": {
      "resourceType": "Encounter",
      "id": "5066105f-a7bd-4f3b-89bb-fc7bcb269e5f",
      "meta": {
        "profile": [ "http://hl7.org/fhir/us/qicore/StructureDefinition/qicore-encounter" ]
      },
      "status": "finished",
      "class": {
        "system": "http://terminology.hl7.org/CodeSystem/v3-ActCode",
        "code": "IMP",
        "display": "inpatient encounter"
      },
      "type": [ {
        "coding": [ {
          "system": "http://snomed.info/sct",
          "code": "32485007"
        } ]
      } ],
      "subject": {
        "reference": "Patient/f7838ae4-6846-4bc0-a1e9-2002d5f5b357"
      },
      "period": {
        "start": "2026-11-20T08:00:00.000Z",
        "end": "2026-11-24T08:15:00.000Z"
      },
      "length": {
        "value": 4,
        "unit": "days"
      },
      "hospitalization": {
        "dischargeDisposition": {
          "coding": [ {
            "system": "http://snomed.info/sct",
            "code": "428361000124107",
            "display": "Discharged to Home for Hospice Care"
          } ]
        }
      }
    },
    "request": {
      "method": "PUT",
      "url": "Encounter/5066105f-a7bd-4f3b-89bb-fc7bcb269e5f"
    }
  }, {
    "fullUrl": "https://madie.cms.gov/Claim/65e2f82c-3ca5-49ee-b0b1-fcfd4ec00614",
    "resource": {
      "resourceType": "Claim",
      "id": "65e2f82c-3ca5-49ee-b0b1-fcfd4ec00614",
      "meta": {
        "profile": [ "http://hl7.org/fhir/us/qicore/StructureDefinition/qicore-claim" ]
      },
      "status": "active",
      "type": {
        "coding": [ {
          "system": "http://terminology.hl7.org/CodeSystem/claim-type",
          "code": "institutional"
        } ]
      },
      "use": "claim",
      "patient": {
        "reference": "Patient/f7838ae4-6846-4bc0-a1e9-2002d5f5b357"
      },
      "created": "2026-12-01",
      "provider": {
        "reference": "Practitioner/e03cde9f-8a69-455e-93a4-5a78334a077c"
      },
      "priority": {
        "coding": [ {
          "system": "http://terminology.hl7.org/CodeSystem/processpriority",
          "code": "normal"
        } ]
      },
      "diagnosis": [ {
        "sequence": 1,
        "diagnosisCodeableConcept": {
          "coding": [ {
            "system": "http://hl7.org/fhir/sid/icd-10-cm",
            "code": "I63.00"
          } ]
        },
        "type": [ {
          "coding": [ {
            "system": "http://terminology.hl7.org/CodeSystem/ex-diagnosistype",
            "code": "principal"
          } ]
        } ]
      } ],
      "insurance": [ {
        "sequence": 1,
        "focal": true,
        "coverage": {
          "reference": "Coverage/5fa041661c76ba66d9959367"
        }
      } ],
      "item": [ {
        "sequence": 1,
        "diagnosisSequence": [ 1 ],
        "productOrService": {
          "coding": [ {
            "system": "http://terminology.hl7.org/CodeSystem/ex-USCLS",
            "code": "99555"
          } ]
        },
        "encounter": [ {
          "reference": "Encounter/5066105f-a7bd-4f3b-89bb-fc7bcb269e5f"
        } ]
      } ]
    },
    "request": {
      "method": "PUT",
      "url": "Claim/65e2f82c-3ca5-49ee-b0b1-fcfd4ec00614"
    }
  }, {
    "fullUrl": "https://madie.cms.gov/Coverage/35297c23-ad94-4917-8f31-5bd4d4457968",
    "resource": {
      "resourceType": "Coverage",
      "id": "35297c23-ad94-4917-8f31-5bd4d4457968",
      "meta": {
        "profile": [ "http://hl7.org/fhir/us/qicore/StructureDefinition/qicore-coverage" ]
      },
      "status": "active",
      "subscriberId": "523435",
      "beneficiary": {
        "reference": "Patient/f7838ae4-6846-4bc0-a1e9-2002d5f5b357"
      },
      "relationship": {
        "coding": [ {
          "system": "http://terminology.hl7.org/CodeSystem/subscriber-relationship",
          "code": "self"
        } ]
      },
      "payor": [ {
        "reference": "Organization/ed228642-04dc-415d-a217-d6c7e24119f5"
      } ]
    },
    "request": {
      "method": "PUT",
      "url": "Coverage/35297c23-ad94-4917-8f31-5bd4d4457968"
    }
  }, {
    "fullUrl": "https://madie.cms.gov/Procedure/65629dec-1887-4836-87fe-37ab655691bc",
    "resource": {
      "resourceType": "Procedure",
      "id": "65629dec-1887-4836-87fe-37ab655691bc",
      "meta": {
        "profile": [ "http://hl7.org/fhir/us/qicore/StructureDefinition/qicore-procedure" ]
      },
      "extension": [ {
        "url": "http://hl7.org/fhir/us/qicore/StructureDefinition/qicore-recorded",
        "valueDateTime": "2026-11-19T13:35:00.000Z"
      } ],
      "status": "completed",
      "code": {
        "coding": [ {
          "system": "http://www.cms.gov/Medicare/Coding/ICD10",
          "code": "02560ZZ"
        }, {
          "system": "http://snomed.info/sct",
          "code": "175095005"
        } ]
      },
      "subject": {
        "reference": "Patient/f7838ae4-6846-4bc0-a1e9-2002d5f5b357"
      },
      "performedPeriod": {
        "start": "2026-11-19T08:00:00.000Z",
        "end": "2026-11-20T08:15:00.000Z"
      }
    },
    "request": {
      "method": "PUT",
      "url": "Procedure/65629dec-1887-4836-87fe-37ab655691bc"
    }
  }, {
    "fullUrl": "https://madie.cms.gov/Condition/9ea89b1e-b3e4-4829-b1f8-c63b87de8d8f",
    "resource": {
      "resourceType": "Condition",
      "id": "9ea89b1e-b3e4-4829-b1f8-c63b87de8d8f",
      "meta": {
        "profile": [ "http://hl7.org/fhir/us/qicore/StructureDefinition/qicore-condition-encounter-diagnosis" ]
      },
      "clinicalStatus": {
        "coding": [ {
          "system": "http://terminology.hl7.org/CodeSystem/condition-clinical",
          "code": "active"
        } ]
      },
      "verificationStatus": {
        "coding": [ {
          "system": "http://terminology.hl7.org/CodeSystem/condition-ver-status",
          "code": "confirmed"
        } ]
      },
      "category": [ {
        "coding": [ {
          "system": "http://terminology.hl7.org/CodeSystem/condition-category",
          "code": "encounter-diagnosis",
          "display": "Encounter Diagnosis"
        } ]
      } ],
      "code": {
        "coding": [ {
          "system": "http://snomed.info/sct",
          "version": "2021-09",
          "code": "111297002",
          "display": "Nonparalytic stroke (disorder)",
          "userSelected": true
        } ]
      },
      "subject": {
        "reference": "Patient/f7838ae4-6846-4bc0-a1e9-2002d5f5b357"
      },
      "recordedDate": "2026-10-13T08:00:00.000Z"
    },
    "request": {
      "method": "PUT",
      "url": "Condition/9ea89b1e-b3e4-4829-b1f8-c63b87de8d8f"
    }
  }, {
    "fullUrl": "https://madie.cms.gov/Organization/ed228642-04dc-415d-a217-d6c7e24119f5",
    "resource": {
      "resourceType": "Organization",
      "id": "ed228642-04dc-415d-a217-d6c7e24119f5",
      "meta": {
        "profile": [ "http://hl7.org/fhir/us/qicore/StructureDefinition/qicore-organization" ]
      },
      "identifier": [ {
        "use": "temp",
        "system": "urn:oid:2.16.840.1.113883.4.4",
        "value": "21-3259825"
      } ],
      "active": true,
      "type": [ {
        "coding": [ {
          "system": "http://terminology.hl7.org/CodeSystem/organization-type",
          "code": "pay",
          "display": "Payer"
        } ]
      } ],
      "name": "Blue Cross Blue Shield of Texas",
      "telecom": [ {
        "system": "phone",
        "value": "(+1) 972-766-6900"
      } ],
      "address": [ {
        "use": "billing",
        "type": "postal",
        "line": [ "P.O. Box 660044" ],
        "city": "Dallas",
        "state": "TX",
        "postalCode": "75266-0044",
        "country": "USA"
      } ]
    },
    "request": {
      "method": "PUT",
      "url": "Organization/ed228642-04dc-415d-a217-d6c7e24119f5"
    }
  }, {
    "fullUrl": "https://madie.cms.gov/Practitioner/e03cde9f-8a69-455e-93a4-5a78334a077c",
    "resource": {
      "resourceType": "Practitioner",
      "id": "e03cde9f-8a69-455e-93a4-5a78334a077c",
      "meta": {
        "profile": [ "http://hl7.org/fhir/us/qicore/StructureDefinition/qicore-practitioner" ]
      },
      "identifier": [ {
        "system": "http://hl7.org/fhir/sid/us-npi",
        "value": "9999999896"
      } ],
      "name": [ {
        "family": "Evil",
        "prefix": [ "Dr" ]
      } ]
    },
    "request": {
      "method": "PUT",
      "url": "Practitioner/e03cde9f-8a69-455e-93a4-5a78334a077c"
    }
  }, {
    "fullUrl": "https://madie.cms.gov/MeasureReport/3278a26f-ee39-470b-b29c-e62dc63849cb",
    "resource": {
      "resourceType": "MeasureReport",
      "id": "3278a26f-ee39-470b-b29c-e62dc63849cb",
      "meta": {
        "profile": [ "http://hl7.org/fhir/us/cqfmeasures/StructureDefinition/test-case-cqfm" ]
      },
      "contained": [ {
        "resourceType": "Parameters",
        "id": "1d264fdb-5c01-4d36-b910-48049455d053-parameters",
        "parameter": [ {
          "name": "subject",
          "valueString": "f7838ae4-6846-4bc0-a1e9-2002d5f5b357"
        } ]
      } ],
      "extension": [ {
        "url": "http://hl7.org/fhir/StructureDefinition/cqf-inputParameters",
        "valueReference": {
          "reference": "#1d264fdb-5c01-4d36-b910-48049455d053-parameters"
        }
      }, {
        "url": "http://hl7.org/fhir/us/cqfmeasures/StructureDefinition/cqfm-testCaseDescription",
        "valueMarkdown": "Discharged to Home/Hospice\n"
      } ],
      "modifierExtension": [ {
        "url": "http://hl7.org/fhir/us/cqfmeasures/StructureDefinition/cqfm-isTestCase",
        "valueBoolean": true
      } ],
      "status": "complete",
      "type": "individual",
      "measure": "https://madie.cms.gov/Measure/CMS71FHIRSTKAnticoagAFFlutter",
      "period": {
        "start": "2026-01-01",
        "end": "2026-12-31"
      },
      "group": [ {
        "id": "Group_1",
        "population": [ {
          "id": "InitialPopulation_1",
          "code": {
            "coding": [ {
              "system": "http://terminology.hl7.org/CodeSystem/measure-population",
              "code": "initial-population",
              "display": "Initial Population"
            } ]
          },
          "count": 1
        }, {
          "id": "Denominator_1",
          "code": {
            "coding": [ {
              "system": "http://terminology.hl7.org/CodeSystem/measure-population",
              "code": "denominator",
              "display": "Denominator"
            } ]
          },
          "count": 1
        }, {
          "id": "DenominatorExclusion_1",
          "code": {
            "coding": [ {
              "system": "http://terminology.hl7.org/CodeSystem/measure-population",
              "code": "denominator-exclusion",
              "display": "Denominator Exclusion"
            } ]
          },
          "count": 1
        }, {
          "id": "Numerator_1",
          "code": {
            "coding": [ {
              "system": "http://terminology.hl7.org/CodeSystem/measure-population",
              "code": "numerator",
              "display": "Numerator"
            } ]
          },
          "count": 0
        }, {
          "id": "DenominatorException_1",
          "code": {
            "coding": [ {
              "system": "http://terminology.hl7.org/CodeSystem/measure-population",
              "code": "denominator-exception",
              "display": "Denominator Exception"
            } ]
          },
          "count": 0
        } ],
        "measureScore": {
          "value": 0.0
        }
      } ],
      "evaluatedResource": [ {
        "reference": "Patient/f7838ae4-6846-4bc0-a1e9-2002d5f5b357"
      }, {
        "reference": "Encounter/5066105f-a7bd-4f3b-89bb-fc7bcb269e5f"
      }, {
        "reference": "Claim/65e2f82c-3ca5-49ee-b0b1-fcfd4ec00614"
      }, {
        "reference": "Coverage/35297c23-ad94-4917-8f31-5bd4d4457968"
      }, {
        "reference": "Procedure/65629dec-1887-4836-87fe-37ab655691bc"
      }, {
        "reference": "Condition/9ea89b1e-b3e4-4829-b1f8-c63b87de8d8f"
      }, {
        "reference": "Organization/ed228642-04dc-415d-a217-d6c7e24119f5"
      }, {
        "reference": "Practitioner/e03cde9f-8a69-455e-93a4-5a78334a077c"
      } ]
    },
    "request": {
      "method": "PUT",
      "url": "MeasureReport/3278a26f-ee39-470b-b29c-e62dc63849cb"
    }
  } ]
}