{
  "resourceType": "Bundle",
  "id": "633c9d040968f8012250fca9",
  "type": "transaction",
  "entry": [ {
    "fullUrl": "https://madie.cms.gov/Patient/a2365453-d868-4111-b1dc-aad2e81d55fd",
    "resource": {
      "resourceType": "Patient",
      "id": "a2365453-d868-4111-b1dc-aad2e81d55fd",
      "meta": {
        "profile": [ "http://hl7.org/fhir/us/qicore/StructureDefinition/qicore-patient" ]
      },
      "text": {
        "status": "generated",
        "div": "<div xmlns=\"http://www.w3.org/1999/xhtml\"><div class=\"hapiHeaderText\">CMOdurED_ED&lt;1hrObs&gt;1hrBFEnc <b>DENEXFAIL </b></div><table class=\"hapiPropertyTable\"><tbody><tr><td>Identifier</td><td>16a8bb5fe1507565fee1a4f891d3aeaa0d43dfed75c5408a6c17ebb5066d29ae</td></tr><tr><td>Date of birth</td><td><span>18 September 1985</span></td></tr></tbody></table></div>"
      },
      "extension": [ {
        "url": "http://hl7.org/fhir/us/core/StructureDefinition/us-core-race",
        "extension": [ {
          "url": "ombCategory",
          "valueCoding": {
            "system": "urn:oid:2.16.840.1.113883.6.238",
            "code": "1002-5",
            "display": "American Indian or Alaska Native",
            "userSelected": true
          }
        }, {
          "url": "text",
          "valueString": "American Indian or Alaska Native"
        } ]
      }, {
        "url": "http://hl7.org/fhir/us/core/StructureDefinition/us-core-ethnicity",
        "extension": [ {
          "url": "ombCategory",
          "valueCoding": {
            "system": "urn:oid:2.16.840.1.113883.6.238",
            "code": "2135-2",
            "display": "Hispanic or Latino",
            "userSelected": true
          }
        }, {
          "url": "text",
          "valueString": "Hispanic or Latino"
        } ]
      } ],
      "identifier": [ {
        "type": {
          "coding": [ {
            "system": "http://terminology.hl7.org/CodeSystem/v2-0203",
            "code": "MR"
          } ]
        },
        "system": "https://bonnie-fhir.healthit.gov/",
        "value": "633c9d040968f8012250fca9"
      } ],
      "active": true,
      "name": [ {
        "use": "usual",
        "family": "DENEXFail",
        "given": [ "CMOdurED_ED<1hrObs>1hrBFEnc" ]
      } ],
      "gender": "female",
      "birthDate": "1986-09-18"
    },
    "request": {
      "method": "PUT",
      "url": "Patient/a2365453-d868-4111-b1dc-aad2e81d55fd"
    }
  }, {
    "fullUrl": "https://madie.cms.gov/Condition/b6c52a7b-c794-4e93-8e96-388092123599",
    "resource": {
      "resourceType": "Condition",
      "id": "b6c52a7b-c794-4e93-8e96-388092123599",
      "meta": {
        "profile": [ "http://hl7.org/fhir/us/qicore/StructureDefinition/qicore-condition-encounter-diagnosis" ]
      },
      "clinicalStatus": {
        "coding": [ {
          "system": "http://terminology.hl7.org/CodeSystem/condition-clinical",
          "code": "inactive"
        } ]
      },
      "verificationStatus": {
        "coding": [ {
          "system": "http://terminology.hl7.org/CodeSystem/condition-ver-status",
          "code": "confirmed"
        } ]
      },
      "category": [ {
        "coding": [ {
          "system": "http://terminology.hl7.org/CodeSystem/condition-category",
          "code": "encounter-diagnosis",
          "display": "Encounter Diagnosis"
        } ]
      } ],
      "code": {
        "coding": [ {
          "system": "http://hl7.org/fhir/sid/icd-9-cm",
          "code": "427.31"
        }, {
          "system": "http://hl7.org/fhir/sid/icd-10-cm",
          "code": "I48.0"
        }, {
          "system": "http://snomed.info/sct",
          "code": "5370000"
        } ]
      },
      "subject": {
        "reference": "Patient/a2365453-d868-4111-b1dc-aad2e81d55fd"
      },
      "onsetDateTime": "2026-10-01T09:01:00.000Z",
      "abatementDateTime": "2026-10-12T00:15:00.000Z"
    },
    "request": {
      "method": "PUT",
      "url": "Condition/b6c52a7b-c794-4e93-8e96-388092123599"
    }
  }, {
    "fullUrl": "https://madie.cms.gov/Encounter/6a4fdd87-3725-416f-9804-ab9f9b8fa8d2",
    "resource": {
      "resourceType": "Encounter",
      "id": "6a4fdd87-3725-416f-9804-ab9f9b8fa8d2",
      "meta": {
        "profile": [ "http://hl7.org/fhir/us/qicore/StructureDefinition/qicore-encounter" ]
      },
      "status": "finished",
      "class": {
        "system": "http://terminology.hl7.org/CodeSystem/v3-ActCode",
        "code": "EMER",
        "display": "emergency"
      },
      "type": [ {
        "coding": [ {
          "system": "http://snomed.info/sct",
          "code": "4525004"
        } ]
      } ],
      "subject": {
        "reference": "Patient/a2365453-d868-4111-b1dc-aad2e81d55fd"
      },
      "period": {
        "start": "2026-10-01T09:01:00.000Z",
        "end": "2026-10-01T12:15:00.000Z"
      },
      "length": {
        "value": 0,
        "unit": "days"
      }
    },
    "request": {
      "method": "PUT",
      "url": "Encounter/6a4fdd87-3725-416f-9804-ab9f9b8fa8d2"
    }
  }, {
    "fullUrl": "https://madie.cms.gov/Encounter/3a872674-567e-4370-9dde-6ff951fd2921",
    "resource": {
      "resourceType": "Encounter",
      "id": "3a872674-567e-4370-9dde-6ff951fd2921",
      "meta": {
        "profile": [ "http://hl7.org/fhir/us/qicore/StructureDefinition/qicore-encounter" ]
      },
      "status": "finished",
      "class": {
        "system": "http://terminology.hl7.org/CodeSystem/v3-ActCode",
        "code": "OBSENC",
        "display": "observation encounter"
      },
      "type": [ {
        "coding": [ {
          "system": "http://snomed.info/sct",
          "code": "448851000124103"
        } ]
      } ],
      "subject": {
        "reference": "Patient/a2365453-d868-4111-b1dc-aad2e81d55fd"
      },
      "period": {
        "start": "2026-10-01T12:16:00.000Z",
        "end": "2026-10-01T12:30:00.000Z"
      },
      "length": {
        "value": 0,
        "unit": "days"
      }
    },
    "request": {
      "method": "PUT",
      "url": "Encounter/3a872674-567e-4370-9dde-6ff951fd2921"
    }
  }, {
    "fullUrl": "https://madie.cms.gov/Encounter/1647e029-8e11-45be-a9cb-c3e2463e52a3",
    "resource": {
      "resourceType": "Encounter",
      "id": "1647e029-8e11-45be-a9cb-c3e2463e52a3",
      "meta": {
        "profile": [ "http://hl7.org/fhir/us/qicore/StructureDefinition/qicore-encounter" ]
      },
      "status": "finished",
      "class": {
        "system": "http://terminology.hl7.org/CodeSystem/v3-ActCode",
        "code": "IMP",
        "display": "inpatient encounter"
      },
      "type": [ {
        "coding": [ {
          "system": "http://snomed.info/sct",
          "code": "32485007"
        } ]
      } ],
      "subject": {
        "reference": "Patient/a2365453-d868-4111-b1dc-aad2e81d55fd"
      },
      "period": {
        "start": "2026-10-01T13:31:00.000Z",
        "end": "2026-10-12T00:15:00.000Z"
      },
      "length": {
        "value": 11,
        "unit": "days"
      },
      "reasonReference": [ {
        "reference": "Condition/b6c52a7b-c794-4e93-8e96-388092123599"
      } ]
    },
    "request": {
      "method": "PUT",
      "url": "Encounter/1647e029-8e11-45be-a9cb-c3e2463e52a3"
    }
  }, {
    "fullUrl": "https://madie.cms.gov/ServiceRequest/f6e15ec2-09b2-454d-9b69-232e16277cf5",
    "resource": {
      "resourceType": "ServiceRequest",
      "id": "f6e15ec2-09b2-454d-9b69-232e16277cf5",
      "meta": {
        "profile": [ "http://hl7.org/fhir/us/qicore/StructureDefinition/qicore-servicerequest" ]
      },
      "status": "active",
      "intent": "order",
      "code": {
        "coding": [ {
          "system": "http://snomed.info/sct",
          "code": "133918004"
        } ]
      },
      "subject": {
        "reference": "Patient/a2365453-d868-4111-b1dc-aad2e81d55fd"
      },
      "authoredOn": "2026-10-01T09:15:00.000Z"
    },
    "request": {
      "method": "PUT",
      "url": "ServiceRequest/f6e15ec2-09b2-454d-9b69-232e16277cf5"
    }
  }, {
    "fullUrl": "https://madie.cms.gov/Coverage/e23ffe10-e10b-4b10-add0-bc87675bbc6e",
    "resource": {
      "resourceType": "Coverage",
      "id": "e23ffe10-e10b-4b10-add0-bc87675bbc6e",
      "meta": {
        "profile": [ "http://hl7.org/fhir/us/qicore/StructureDefinition/qicore-coverage" ]
      },
      "status": "active",
      "subscriberId": "523435",
      "beneficiary": {
        "reference": "Patient/a2365453-d868-4111-b1dc-aad2e81d55fd"
      },
      "relationship": {
        "coding": [ {
          "system": "http://terminology.hl7.org/CodeSystem/subscriber-relationship",
          "code": "self"
        } ]
      },
      "payor": [ {
        "reference": "Organization/c7f0a7d2-a3a3-41ae-837e-79030e369043"
      } ]
    },
    "request": {
      "method": "PUT",
      "url": "Coverage/e23ffe10-e10b-4b10-add0-bc87675bbc6e"
    }
  }, {
    "fullUrl": "https://madie.cms.gov/Condition/2b06bf2e-1775-4861-9253-0fdbdb37ddbb",
    "resource": {
      "resourceType": "Condition",
      "id": "2b06bf2e-1775-4861-9253-0fdbdb37ddbb",
      "meta": {
        "profile": [ "http://hl7.org/fhir/us/qicore/StructureDefinition/qicore-condition-encounter-diagnosis" ]
      },
      "clinicalStatus": {
        "coding": [ {
          "system": "http://terminology.hl7.org/CodeSystem/condition-clinical",
          "code": "active"
        } ]
      },
      "verificationStatus": {
        "coding": [ {
          "system": "http://terminology.hl7.org/CodeSystem/condition-ver-status",
          "code": "confirmed"
        } ]
      },
      "category": [ {
        "coding": [ {
          "system": "http://terminology.hl7.org/CodeSystem/condition-category",
          "code": "encounter-diagnosis",
          "display": "Encounter Diagnosis"
        } ]
      } ],
      "code": {
        "coding": [ {
          "system": "http://snomed.info/sct",
          "version": "2021-09",
          "code": "111297002",
          "display": "Nonparalytic stroke (disorder)",
          "userSelected": true
        } ]
      },
      "subject": {
        "reference": "Patient/a2365453-d868-4111-b1dc-aad2e81d55fd"
      },
      "recordedDate": "2026-10-13T08:00:00.000Z"
    },
    "request": {
      "method": "PUT",
      "url": "Condition/2b06bf2e-1775-4861-9253-0fdbdb37ddbb"
    }
  }, {
    "fullUrl": "https://madie.cms.gov/Claim/ef094f14-8682-4c8e-a8a1-a87d68401b0d",
    "resource": {
      "resourceType": "Claim",
      "id": "ef094f14-8682-4c8e-a8a1-a87d68401b0d",
      "meta": {
        "profile": [ "http://hl7.org/fhir/us/qicore/StructureDefinition/qicore-claim" ]
      },
      "status": "active",
      "type": {
        "coding": [ {
          "system": "http://terminology.hl7.org/CodeSystem/claim-type",
          "code": "institutional"
        } ]
      },
      "use": "claim",
      "patient": {
        "reference": "Patient/a2365453-d868-4111-b1dc-aad2e81d55fd"
      },
      "created": "2026-12-01",
      "provider": {
        "reference": "Practitioner/practitioner-123456"
      },
      "priority": {
        "coding": [ {
          "system": "http://terminology.hl7.org/CodeSystem/processpriority",
          "code": "normal"
        } ]
      },
      "diagnosis": [ {
        "sequence": 1,
        "diagnosisCodeableConcept": {
          "coding": [ {
            "system": "http://hl7.org/fhir/sid/icd-10-cm",
            "code": "I63.00"
          } ]
        },
        "type": [ {
          "coding": [ {
            "system": "http://terminology.hl7.org/CodeSystem/ex-diagnosistype",
            "code": "principal"
          } ]
        } ]
      } ],
      "insurance": [ {
        "sequence": 1,
        "focal": true,
        "coverage": {
          "reference": "Coverage/5fa041661c76ba66d9959367"
        }
      } ],
      "item": [ {
        "sequence": 1,
        "diagnosisSequence": [ 1 ],
        "productOrService": {
          "coding": [ {
            "system": "http://terminology.hl7.org/CodeSystem/ex-USCLS",
            "code": "99555"
          } ]
        },
        "encounter": [ {
          "reference": "Encounter/1647e029-8e11-45be-a9cb-c3e2463e52a3"
        } ]
      } ]
    },
    "request": {
      "method": "PUT",
      "url": "Claim/ef094f14-8682-4c8e-a8a1-a87d68401b0d"
    }
  }, {
    "fullUrl": "https://madie.cms.gov/Organization/c7f0a7d2-a3a3-41ae-837e-79030e369043",
    "resource": {
      "resourceType": "Organization",
      "id": "c7f0a7d2-a3a3-41ae-837e-79030e369043",
      "meta": {
        "profile": [ "http://hl7.org/fhir/us/qicore/StructureDefinition/qicore-organization" ]
      },
      "identifier": [ {
        "use": "temp",
        "system": "urn:oid:2.16.840.1.113883.4.4",
        "value": "21-3259825"
      } ],
      "active": true,
      "type": [ {
        "coding": [ {
          "system": "http://terminology.hl7.org/CodeSystem/organization-type",
          "code": "pay",
          "display": "Payer"
        } ]
      } ],
      "name": "Blue Cross Blue Shield of Texas",
      "telecom": [ {
        "system": "phone",
        "value": "(+1) 972-766-6900"
      } ],
      "address": [ {
        "use": "billing",
        "type": "postal",
        "line": [ "P.O. Box 660044" ],
        "city": "Dallas",
        "state": "TX",
        "postalCode": "75266-0044",
        "country": "USA"
      } ]
    },
    "request": {
      "method": "PUT",
      "url": "Organization/c7f0a7d2-a3a3-41ae-837e-79030e369043"
    }
  }, {
    "fullUrl": "https://madie.cms.gov/MeasureReport/4667083f-f52a-4081-b428-5023a54fee89",
    "resource": {
      "resourceType": "MeasureReport",
      "id": "4667083f-f52a-4081-b428-5023a54fee89",
      "meta": {
        "profile": [ "http://hl7.org/fhir/us/cqfmeasures/StructureDefinition/test-case-cqfm" ]
      },
      "contained": [ {
        "resourceType": "Parameters",
        "id": "61d9afa0-e069-4410-8ef4-2ac5f10974b7-parameters",
        "parameter": [ {
          "name": "subject",
          "valueString": "a2365453-d868-4111-b1dc-aad2e81d55fd"
        } ]
      } ],
      "extension": [ {
        "url": "http://hl7.org/fhir/StructureDefinition/cqf-inputParameters",
        "valueReference": {
          "reference": "#61d9afa0-e069-4410-8ef4-2ac5f10974b7-parameters"
        }
      }, {
        "url": "http://hl7.org/fhir/us/cqfmeasures/StructureDefinition/cqfm-testCaseDescription",
        "valueMarkdown": "Patient receives CMO during Observation. ED ends 1 min before Obs start and Obs ends 61 min before inpatient encounter start. Testing HospitalizationWithObservation function."
      } ],
      "modifierExtension": [ {
        "url": "http://hl7.org/fhir/us/cqfmeasures/StructureDefinition/cqfm-isTestCase",
        "valueBoolean": true
      } ],
      "status": "complete",
      "type": "individual",
      "measure": "https://madie.cms.gov/Measure/CMS71FHIRSTKAnticoagAFFlutter",
      "period": {
        "start": "2026-01-01",
        "end": "2026-12-31"
      },
      "group": [ {
        "id": "Group_1",
        "population": [ {
          "id": "InitialPopulation_1",
          "code": {
            "coding": [ {
              "system": "http://terminology.hl7.org/CodeSystem/measure-population",
              "code": "initial-population",
              "display": "Initial Population"
            } ]
          },
          "count": 1
        }, {
          "id": "Denominator_1",
          "code": {
            "coding": [ {
              "system": "http://terminology.hl7.org/CodeSystem/measure-population",
              "code": "denominator",
              "display": "Denominator"
            } ]
          },
          "count": 1
        }, {
          "id": "DenominatorExclusion_1",
          "code": {
            "coding": [ {
              "system": "http://terminology.hl7.org/CodeSystem/measure-population",
              "code": "denominator-exclusion",
              "display": "Denominator Exclusion"
            } ]
          },
          "count": 0
        }, {
          "id": "Numerator_1",
          "code": {
            "coding": [ {
              "system": "http://terminology.hl7.org/CodeSystem/measure-population",
              "code": "numerator",
              "display": "Numerator"
            } ]
          },
          "count": 0
        }, {
          "id": "DenominatorException_1",
          "code": {
            "coding": [ {
              "system": "http://terminology.hl7.org/CodeSystem/measure-population",
              "code": "denominator-exception",
              "display": "Denominator Exception"
            } ]
          },
          "count": 0
        } ],
        "measureScore": {
          "value": 0.0
        }
      } ],
      "evaluatedResource": [ {
        "reference": "Patient/a2365453-d868-4111-b1dc-aad2e81d55fd"
      }, {
        "reference": "Condition/b6c52a7b-c794-4e93-8e96-388092123599"
      }, {
        "reference": "Encounter/6a4fdd87-3725-416f-9804-ab9f9b8fa8d2"
      }, {
        "reference": "Encounter/3a872674-567e-4370-9dde-6ff951fd2921"
      }, {
        "reference": "Encounter/1647e029-8e11-45be-a9cb-c3e2463e52a3"
      }, {
        "reference": "ServiceRequest/f6e15ec2-09b2-454d-9b69-232e16277cf5"
      }, {
        "reference": "Coverage/e23ffe10-e10b-4b10-add0-bc87675bbc6e"
      }, {
        "reference": "Condition/2b06bf2e-1775-4861-9253-0fdbdb37ddbb"
      }, {
        "reference": "Claim/ef094f14-8682-4c8e-a8a1-a87d68401b0d"
      }, {
        "reference": "Organization/c7f0a7d2-a3a3-41ae-837e-79030e369043"
      } ]
    },
    "request": {
      "method": "PUT",
      "url": "MeasureReport/4667083f-f52a-4081-b428-5023a54fee89"
    }
  } ]
}