{
  "resourceType": "Bundle",
  "id": "633c9d030968f8012250fc99",
  "type": "transaction",
  "entry": [ {
    "fullUrl": "https://madie.cms.gov/Patient/0035424c-e3be-4dc2-919a-fd1c665893f6",
    "resource": {
      "resourceType": "Patient",
      "id": "0035424c-e3be-4dc2-919a-fd1c665893f6",
      "meta": {
        "profile": [ "http://hl7.org/fhir/us/qicore/StructureDefinition/qicore-patient" ]
      },
      "text": {
        "status": "generated",
        "div": "<div xmlns=\"http://www.w3.org/1999/xhtml\"><div class=\"hapiHeaderText\">Dx=Afib/flutterStart=EncEnd <b>DENOMPASS </b></div><table class=\"hapiPropertyTable\"><tbody><tr><td>Identifier</td><td>eea63111353acebe4dc924bd86a7bec7</td></tr><tr><td>Date of birth</td><td><span>01 December 1960</span></td></tr></tbody></table></div>"
      },
      "extension": [ {
        "url": "http://hl7.org/fhir/us/core/StructureDefinition/us-core-race",
        "extension": [ {
          "url": "ombCategory",
          "valueCoding": {
            "system": "urn:oid:2.16.840.1.113883.6.238",
            "code": "1002-5",
            "display": "American Indian or Alaska Native",
            "userSelected": true
          }
        }, {
          "url": "text",
          "valueString": "American Indian or Alaska Native"
        } ]
      }, {
        "url": "http://hl7.org/fhir/us/core/StructureDefinition/us-core-ethnicity",
        "extension": [ {
          "url": "ombCategory",
          "valueCoding": {
            "system": "urn:oid:2.16.840.1.113883.6.238",
            "code": "2135-2",
            "display": "Hispanic or Latino",
            "userSelected": true
          }
        }, {
          "url": "text",
          "valueString": "Hispanic or Latino"
        } ]
      } ],
      "identifier": [ {
        "type": {
          "coding": [ {
            "system": "http://terminology.hl7.org/CodeSystem/v2-0203",
            "code": "MR"
          } ]
        },
        "system": "https://bonnie-fhir.healthit.gov/",
        "value": "633c9d030968f8012250fc99"
      } ],
      "active": true,
      "name": [ {
        "use": "usual",
        "family": "DENOMPass",
        "given": [ "Dx=Afib/flutterStart=EncEnd" ]
      } ],
      "gender": "male",
      "birthDate": "1961-12-01"
    },
    "request": {
      "method": "PUT",
      "url": "Patient/0035424c-e3be-4dc2-919a-fd1c665893f6"
    }
  }, {
    "fullUrl": "https://madie.cms.gov/Condition/fe4a5d6a-7fc2-447b-9dbc-f32a78b1be3d",
    "resource": {
      "resourceType": "Condition",
      "id": "fe4a5d6a-7fc2-447b-9dbc-f32a78b1be3d",
      "meta": {
        "profile": [ "http://hl7.org/fhir/us/qicore/StructureDefinition/qicore-condition-encounter-diagnosis" ]
      },
      "clinicalStatus": {
        "coding": [ {
          "system": "http://terminology.hl7.org/CodeSystem/condition-clinical",
          "code": "inactive"
        } ]
      },
      "verificationStatus": {
        "coding": [ {
          "system": "http://terminology.hl7.org/CodeSystem/condition-ver-status",
          "code": "confirmed"
        } ]
      },
      "category": [ {
        "coding": [ {
          "system": "http://terminology.hl7.org/CodeSystem/condition-category",
          "code": "encounter-diagnosis",
          "display": "Encounter Diagnosis"
        } ]
      } ],
      "code": {
        "coding": [ {
          "system": "http://snomed.info/sct",
          "code": "195080001"
        }, {
          "system": "http://hl7.org/fhir/sid/icd-9-cm",
          "code": "427.31"
        }, {
          "system": "http://hl7.org/fhir/sid/icd-10-cm",
          "code": "I48.0"
        } ]
      },
      "subject": {
        "reference": "Patient/0035424c-e3be-4dc2-919a-fd1c665893f6"
      },
      "onsetDateTime": "2026-02-10T08:15:00.000Z",
      "abatementDateTime": "2026-02-10T08:15:00.000Z"
    },
    "request": {
      "method": "PUT",
      "url": "Condition/fe4a5d6a-7fc2-447b-9dbc-f32a78b1be3d"
    }
  }, {
    "fullUrl": "https://madie.cms.gov/Encounter/aae3487c-fb88-4063-9982-79845b0aa81a",
    "resource": {
      "resourceType": "Encounter",
      "id": "aae3487c-fb88-4063-9982-79845b0aa81a",
      "meta": {
        "profile": [ "http://hl7.org/fhir/us/qicore/StructureDefinition/qicore-encounter" ]
      },
      "status": "finished",
      "class": {
        "system": "http://terminology.hl7.org/CodeSystem/v3-ActCode",
        "code": "IMP",
        "display": "inpatient encounter"
      },
      "type": [ {
        "coding": [ {
          "system": "http://snomed.info/sct",
          "code": "183452005"
        } ]
      } ],
      "subject": {
        "reference": "Patient/0035424c-e3be-4dc2-919a-fd1c665893f6"
      },
      "period": {
        "start": "2026-02-08T08:00:00.000Z",
        "end": "2026-02-10T08:15:00.000Z"
      },
      "length": {
        "value": 2,
        "unit": "days"
      },
      "reasonReference": [ {
        "reference": "Condition/fe4a5d6a-7fc2-447b-9dbc-f32a78b1be3d"
      } ]
    },
    "request": {
      "method": "PUT",
      "url": "Encounter/aae3487c-fb88-4063-9982-79845b0aa81a"
    }
  }, {
    "fullUrl": "https://madie.cms.gov/Claim/d43e192b-1a11-480a-9df7-5a73a99f3bee",
    "resource": {
      "resourceType": "Claim",
      "id": "d43e192b-1a11-480a-9df7-5a73a99f3bee",
      "meta": {
        "profile": [ "http://hl7.org/fhir/us/qicore/StructureDefinition/qicore-claim" ]
      },
      "status": "active",
      "type": {
        "coding": [ {
          "system": "http://terminology.hl7.org/CodeSystem/claim-type",
          "code": "institutional"
        } ]
      },
      "use": "claim",
      "patient": {
        "reference": "Patient/0035424c-e3be-4dc2-919a-fd1c665893f6"
      },
      "created": "2026-12-01",
      "provider": {
        "reference": "Practitioner/2358b708-77a6-4952-a0b8-a7c15754f2cd"
      },
      "priority": {
        "coding": [ {
          "system": "http://terminology.hl7.org/CodeSystem/processpriority",
          "code": "normal"
        } ]
      },
      "diagnosis": [ {
        "sequence": 1,
        "diagnosisCodeableConcept": {
          "coding": [ {
            "system": "http://hl7.org/fhir/sid/icd-10-cm",
            "code": "I63.00"
          } ]
        },
        "type": [ {
          "coding": [ {
            "system": "http://terminology.hl7.org/CodeSystem/ex-diagnosistype",
            "code": "principal"
          } ]
        } ]
      } ],
      "insurance": [ {
        "sequence": 1,
        "focal": true,
        "coverage": {
          "reference": "Coverage/5fa041661c76ba66d9959367"
        }
      } ],
      "item": [ {
        "sequence": 1,
        "diagnosisSequence": [ 1 ],
        "productOrService": {
          "coding": [ {
            "system": "http://terminology.hl7.org/CodeSystem/ex-USCLS",
            "code": "99555"
          } ]
        },
        "encounter": [ {
          "reference": "Encounter/aae3487c-fb88-4063-9982-79845b0aa81a"
        } ]
      } ]
    },
    "request": {
      "method": "PUT",
      "url": "Claim/d43e192b-1a11-480a-9df7-5a73a99f3bee"
    }
  }, {
    "fullUrl": "https://madie.cms.gov/Coverage/f6cb1706-7012-4186-aa2e-1a2c2ce0f282",
    "resource": {
      "resourceType": "Coverage",
      "id": "f6cb1706-7012-4186-aa2e-1a2c2ce0f282",
      "meta": {
        "profile": [ "http://hl7.org/fhir/us/qicore/StructureDefinition/qicore-coverage" ]
      },
      "status": "active",
      "subscriberId": "523435",
      "beneficiary": {
        "reference": "Patient/0035424c-e3be-4dc2-919a-fd1c665893f6"
      },
      "relationship": {
        "coding": [ {
          "system": "http://terminology.hl7.org/CodeSystem/subscriber-relationship",
          "code": "self"
        } ]
      },
      "payor": [ {
        "reference": "Organization/6aac7523-6b7a-4b8b-9f5f-87df363e8ef5"
      } ]
    },
    "request": {
      "method": "PUT",
      "url": "Coverage/f6cb1706-7012-4186-aa2e-1a2c2ce0f282"
    }
  }, {
    "fullUrl": "https://madie.cms.gov/Condition/ae2c667a-c1c0-4243-bb1e-181c86b5406d",
    "resource": {
      "resourceType": "Condition",
      "id": "ae2c667a-c1c0-4243-bb1e-181c86b5406d",
      "meta": {
        "profile": [ "http://hl7.org/fhir/us/qicore/StructureDefinition/qicore-condition-encounter-diagnosis" ]
      },
      "clinicalStatus": {
        "coding": [ {
          "system": "http://terminology.hl7.org/CodeSystem/condition-clinical",
          "code": "active"
        } ]
      },
      "verificationStatus": {
        "coding": [ {
          "system": "http://terminology.hl7.org/CodeSystem/condition-ver-status",
          "code": "confirmed"
        } ]
      },
      "category": [ {
        "coding": [ {
          "system": "http://terminology.hl7.org/CodeSystem/condition-category",
          "code": "encounter-diagnosis",
          "display": "Encounter Diagnosis"
        } ]
      } ],
      "code": {
        "coding": [ {
          "system": "http://snomed.info/sct",
          "version": "2021-09",
          "code": "111297002",
          "display": "Nonparalytic stroke (disorder)",
          "userSelected": true
        } ]
      },
      "subject": {
        "reference": "Patient/0035424c-e3be-4dc2-919a-fd1c665893f6"
      },
      "recordedDate": "2026-10-13T08:00:00.000Z"
    },
    "request": {
      "method": "PUT",
      "url": "Condition/ae2c667a-c1c0-4243-bb1e-181c86b5406d"
    }
  }, {
    "fullUrl": "https://madie.cms.gov/Organization/6aac7523-6b7a-4b8b-9f5f-87df363e8ef5",
    "resource": {
      "resourceType": "Organization",
      "id": "6aac7523-6b7a-4b8b-9f5f-87df363e8ef5",
      "meta": {
        "profile": [ "http://hl7.org/fhir/us/qicore/StructureDefinition/qicore-organization" ]
      },
      "identifier": [ {
        "use": "temp",
        "system": "urn:oid:2.16.840.1.113883.4.4",
        "value": "21-3259825"
      } ],
      "active": true,
      "type": [ {
        "coding": [ {
          "system": "http://terminology.hl7.org/CodeSystem/organization-type",
          "code": "pay",
          "display": "Payer"
        } ]
      } ],
      "name": "Blue Cross Blue Shield of Texas",
      "telecom": [ {
        "system": "phone",
        "value": "(+1) 972-766-6900"
      } ],
      "address": [ {
        "use": "billing",
        "type": "postal",
        "line": [ "P.O. Box 660044" ],
        "city": "Dallas",
        "state": "TX",
        "postalCode": "75266-0044",
        "country": "USA"
      } ]
    },
    "request": {
      "method": "PUT",
      "url": "Organization/6aac7523-6b7a-4b8b-9f5f-87df363e8ef5"
    }
  }, {
    "fullUrl": "https://madie.cms.gov/Practitioner/2358b708-77a6-4952-a0b8-a7c15754f2cd",
    "resource": {
      "resourceType": "Practitioner",
      "id": "2358b708-77a6-4952-a0b8-a7c15754f2cd",
      "meta": {
        "profile": [ "http://hl7.org/fhir/us/qicore/StructureDefinition/qicore-practitioner" ]
      },
      "identifier": [ {
        "system": "http://hl7.org/fhir/sid/us-npi",
        "value": "9999999896"
      } ],
      "name": [ {
        "family": "Evil",
        "prefix": [ "Dr" ]
      } ]
    },
    "request": {
      "method": "PUT",
      "url": "Practitioner/2358b708-77a6-4952-a0b8-a7c15754f2cd"
    }
  }, {
    "fullUrl": "https://madie.cms.gov/MeasureReport/b3dba71a-4dc8-4bfb-bcac-cb6e447e680f",
    "resource": {
      "resourceType": "MeasureReport",
      "id": "b3dba71a-4dc8-4bfb-bcac-cb6e447e680f",
      "meta": {
        "profile": [ "http://hl7.org/fhir/us/cqfmeasures/StructureDefinition/test-case-cqfm" ]
      },
      "contained": [ {
        "resourceType": "Parameters",
        "id": "f693a5ac-d05d-4ca8-8cc4-3374eb017279-parameters",
        "parameter": [ {
          "name": "subject",
          "valueString": "0035424c-e3be-4dc2-919a-fd1c665893f6"
        } ]
      } ],
      "extension": [ {
        "url": "http://hl7.org/fhir/StructureDefinition/cqf-inputParameters",
        "valueReference": {
          "reference": "#f693a5ac-d05d-4ca8-8cc4-3374eb017279-parameters"
        }
      }, {
        "url": "http://hl7.org/fhir/us/cqfmeasures/StructureDefinition/cqfm-testCaseDescription",
        "valueMarkdown": "\"Diagnosis = Afib/flutter start time=encounter end time\nThis case tests the denominator diagnosis criteria (meets criteria). \"\n"
      } ],
      "modifierExtension": [ {
        "url": "http://hl7.org/fhir/us/cqfmeasures/StructureDefinition/cqfm-isTestCase",
        "valueBoolean": true
      } ],
      "status": "complete",
      "type": "individual",
      "measure": "https://madie.cms.gov/Measure/CMS71FHIRSTKAnticoagAFFlutter",
      "period": {
        "start": "2026-01-01",
        "end": "2026-12-31"
      },
      "group": [ {
        "id": "Group_1",
        "population": [ {
          "id": "InitialPopulation_1",
          "code": {
            "coding": [ {
              "system": "http://terminology.hl7.org/CodeSystem/measure-population",
              "code": "initial-population",
              "display": "Initial Population"
            } ]
          },
          "count": 1
        }, {
          "id": "Denominator_1",
          "code": {
            "coding": [ {
              "system": "http://terminology.hl7.org/CodeSystem/measure-population",
              "code": "denominator",
              "display": "Denominator"
            } ]
          },
          "count": 1
        }, {
          "id": "DenominatorExclusion_1",
          "code": {
            "coding": [ {
              "system": "http://terminology.hl7.org/CodeSystem/measure-population",
              "code": "denominator-exclusion",
              "display": "Denominator Exclusion"
            } ]
          },
          "count": 0
        }, {
          "id": "Numerator_1",
          "code": {
            "coding": [ {
              "system": "http://terminology.hl7.org/CodeSystem/measure-population",
              "code": "numerator",
              "display": "Numerator"
            } ]
          },
          "count": 0
        }, {
          "id": "DenominatorException_1",
          "code": {
            "coding": [ {
              "system": "http://terminology.hl7.org/CodeSystem/measure-population",
              "code": "denominator-exception",
              "display": "Denominator Exception"
            } ]
          },
          "count": 0
        } ],
        "measureScore": {
          "value": 0.0
        }
      } ],
      "evaluatedResource": [ {
        "reference": "Patient/0035424c-e3be-4dc2-919a-fd1c665893f6"
      }, {
        "reference": "Condition/fe4a5d6a-7fc2-447b-9dbc-f32a78b1be3d"
      }, {
        "reference": "Encounter/aae3487c-fb88-4063-9982-79845b0aa81a"
      }, {
        "reference": "Claim/d43e192b-1a11-480a-9df7-5a73a99f3bee"
      }, {
        "reference": "Coverage/f6cb1706-7012-4186-aa2e-1a2c2ce0f282"
      }, {
        "reference": "Condition/ae2c667a-c1c0-4243-bb1e-181c86b5406d"
      }, {
        "reference": "Organization/6aac7523-6b7a-4b8b-9f5f-87df363e8ef5"
      }, {
        "reference": "Practitioner/2358b708-77a6-4952-a0b8-a7c15754f2cd"
      } ]
    },
    "request": {
      "method": "PUT",
      "url": "MeasureReport/b3dba71a-4dc8-4bfb-bcac-cb6e447e680f"
    }
  } ]
}