{
  "resourceType": "Bundle",
  "id": "633c9d040968f8012250fcab",
  "type": "transaction",
  "entry": [ {
    "fullUrl": "https://madie.cms.gov/Patient/d5991213-5237-4eb3-a6e9-61404f836d3b",
    "resource": {
      "resourceType": "Patient",
      "id": "d5991213-5237-4eb3-a6e9-61404f836d3b",
      "meta": {
        "profile": [ "http://hl7.org/fhir/us/qicore/StructureDefinition/qicore-patient" ]
      },
      "text": {
        "status": "generated",
        "div": "<div xmlns=\"http://www.w3.org/1999/xhtml\"><div class=\"hapiHeaderText\">EncPrinDx=Afib/Flutter Rank2 <b>IPPFAIL </b></div><table class=\"hapiPropertyTable\"><tbody><tr><td>Identifier</td><td>2038d8a42effee0cae92f8c6fde4ebe8</td></tr><tr><td>Date of birth</td><td><span>01 December 1960</span></td></tr></tbody></table></div>"
      },
      "extension": [ {
        "url": "http://hl7.org/fhir/us/core/StructureDefinition/us-core-race",
        "extension": [ {
          "url": "ombCategory",
          "valueCoding": {
            "system": "urn:oid:2.16.840.1.113883.6.238",
            "code": "1002-5",
            "display": "American Indian or Alaska Native",
            "userSelected": true
          }
        }, {
          "url": "text",
          "valueString": "American Indian or Alaska Native"
        } ]
      }, {
        "url": "http://hl7.org/fhir/us/core/StructureDefinition/us-core-ethnicity",
        "extension": [ {
          "url": "ombCategory",
          "valueCoding": {
            "system": "urn:oid:2.16.840.1.113883.6.238",
            "code": "2135-2",
            "display": "Hispanic or Latino",
            "userSelected": true
          }
        }, {
          "url": "text",
          "valueString": "Hispanic or Latino"
        } ]
      } ],
      "identifier": [ {
        "type": {
          "coding": [ {
            "system": "http://terminology.hl7.org/CodeSystem/v2-0203",
            "code": "MR"
          } ]
        },
        "system": "https://bonnie-fhir.healthit.gov/",
        "value": "633c9d040968f8012250fcab"
      } ],
      "active": true,
      "name": [ {
        "use": "usual",
        "family": "IPPFail",
        "given": [ "EncPrinDx=Afib/Flutter Rank2" ]
      } ],
      "gender": "male",
      "birthDate": "1961-12-01"
    },
    "request": {
      "method": "PUT",
      "url": "Patient/d5991213-5237-4eb3-a6e9-61404f836d3b"
    }
  }, {
    "fullUrl": "https://madie.cms.gov/Encounter/74a4f4e5-e330-4170-945f-d625ef425ca7",
    "resource": {
      "resourceType": "Encounter",
      "id": "74a4f4e5-e330-4170-945f-d625ef425ca7",
      "meta": {
        "profile": [ "http://hl7.org/fhir/us/qicore/StructureDefinition/qicore-encounter" ]
      },
      "status": "finished",
      "class": {
        "system": "http://terminology.hl7.org/CodeSystem/v3-ActCode",
        "code": "IMP",
        "display": "inpatient encounter"
      },
      "type": [ {
        "coding": [ {
          "system": "http://snomed.info/sct",
          "code": "32485007"
        } ]
      } ],
      "subject": {
        "reference": "Patient/d5991213-5237-4eb3-a6e9-61404f836d3b"
      },
      "period": {
        "start": "2026-02-08T08:00:00.000Z",
        "end": "2026-02-10T08:15:00.000Z"
      },
      "length": {
        "value": 2,
        "unit": "days"
      },
      "reasonReference": [ {
        "reference": "Condition/9a098daf-d0ce-4e59-9991-0e222af22539"
      } ]
    },
    "request": {
      "method": "PUT",
      "url": "Encounter/74a4f4e5-e330-4170-945f-d625ef425ca7"
    }
  }, {
    "fullUrl": "https://madie.cms.gov/Coverage/30b7bc40-ba6f-4abe-b91f-fb81f3ea9447",
    "resource": {
      "resourceType": "Coverage",
      "id": "30b7bc40-ba6f-4abe-b91f-fb81f3ea9447",
      "meta": {
        "profile": [ "http://hl7.org/fhir/us/qicore/StructureDefinition/qicore-coverage" ]
      },
      "status": "active",
      "subscriberId": "523435",
      "beneficiary": {
        "reference": "Patient/d5991213-5237-4eb3-a6e9-61404f836d3b"
      },
      "relationship": {
        "coding": [ {
          "system": "http://terminology.hl7.org/CodeSystem/subscriber-relationship",
          "code": "self"
        } ]
      },
      "payor": [ {
        "reference": "Organization/b6622449-55f8-4ff8-a6e4-95e7b4ce54fa"
      } ]
    },
    "request": {
      "method": "PUT",
      "url": "Coverage/30b7bc40-ba6f-4abe-b91f-fb81f3ea9447"
    }
  }, {
    "fullUrl": "https://madie.cms.gov/Condition/9a098daf-d0ce-4e59-9991-0e222af22539",
    "resource": {
      "resourceType": "Condition",
      "id": "9a098daf-d0ce-4e59-9991-0e222af22539",
      "meta": {
        "profile": [ "http://hl7.org/fhir/us/qicore/StructureDefinition/qicore-condition-encounter-diagnosis" ]
      },
      "clinicalStatus": {
        "coding": [ {
          "system": "http://terminology.hl7.org/CodeSystem/condition-clinical",
          "code": "active"
        } ]
      },
      "verificationStatus": {
        "coding": [ {
          "system": "http://terminology.hl7.org/CodeSystem/condition-ver-status",
          "code": "confirmed"
        } ]
      },
      "category": [ {
        "coding": [ {
          "system": "http://terminology.hl7.org/CodeSystem/condition-category",
          "code": "encounter-diagnosis",
          "display": "Encounter Diagnosis"
        } ]
      } ],
      "code": {
        "coding": [ {
          "system": "http://snomed.info/sct",
          "version": "2021-09",
          "code": "120041000119109",
          "display": "Atrial fibrillation with rapid ventricular response (disorder)",
          "userSelected": true
        } ]
      },
      "subject": {
        "reference": "Patient/d5991213-5237-4eb3-a6e9-61404f836d3b"
      },
      "recordedDate": "2026-10-13T08:00:00.000Z"
    },
    "request": {
      "method": "PUT",
      "url": "Condition/9a098daf-d0ce-4e59-9991-0e222af22539"
    }
  }, {
    "fullUrl": "https://madie.cms.gov/Claim/5e838ab1-2210-4c2d-b2eb-5a95817fd66b",
    "resource": {
      "resourceType": "Claim",
      "id": "5e838ab1-2210-4c2d-b2eb-5a95817fd66b",
      "meta": {
        "profile": [ "http://hl7.org/fhir/us/qicore/StructureDefinition/qicore-claim" ]
      },
      "status": "active",
      "type": {
        "coding": [ {
          "system": "http://terminology.hl7.org/CodeSystem/claim-type",
          "code": "institutional"
        } ]
      },
      "use": "claim",
      "patient": {
        "reference": "Patient/d5991213-5237-4eb3-a6e9-61404f836d3b"
      },
      "created": "2026-12-01",
      "provider": {
        "reference": "Practitioner/c08c6bc4-233e-4af1-812d-85c0458e2396"
      },
      "priority": {
        "coding": [ {
          "system": "http://terminology.hl7.org/CodeSystem/processpriority",
          "code": "normal"
        } ]
      },
      "diagnosis": [ {
        "sequence": 1,
        "diagnosisCodeableConcept": {
          "coding": [ {
            "system": "http://hl7.org/fhir/sid/icd-10-cm",
            "code": "I48.00"
          } ]
        },
        "type": [ {
          "coding": [ {
            "system": "http://terminology.hl7.org/CodeSystem/ex-diagnosistype",
            "code": "principal"
          } ]
        } ]
      } ],
      "insurance": [ {
        "sequence": 1,
        "focal": true,
        "coverage": {
          "reference": "Coverage/5fa041661c76ba66d9959367"
        }
      } ],
      "item": [ {
        "sequence": 2,
        "diagnosisSequence": [ 2 ],
        "productOrService": {
          "coding": [ {
            "system": "http://terminology.hl7.org/CodeSystem/ex-USCLS",
            "code": "99555"
          } ]
        },
        "encounter": [ {
          "reference": "Encounter/atrial-fibrillation-flutter-1987"
        } ]
      } ]
    },
    "request": {
      "method": "PUT",
      "url": "Claim/5e838ab1-2210-4c2d-b2eb-5a95817fd66b"
    }
  }, {
    "fullUrl": "https://madie.cms.gov/Organization/b6622449-55f8-4ff8-a6e4-95e7b4ce54fa",
    "resource": {
      "resourceType": "Organization",
      "id": "b6622449-55f8-4ff8-a6e4-95e7b4ce54fa",
      "meta": {
        "profile": [ "http://hl7.org/fhir/us/qicore/StructureDefinition/qicore-organization" ]
      },
      "identifier": [ {
        "use": "temp",
        "system": "urn:oid:2.16.840.1.113883.4.4",
        "value": "21-3259825"
      } ],
      "active": true,
      "type": [ {
        "coding": [ {
          "system": "http://terminology.hl7.org/CodeSystem/organization-type",
          "code": "pay",
          "display": "Payer"
        } ]
      } ],
      "name": "Blue Cross Blue Shield of Texas",
      "telecom": [ {
        "system": "phone",
        "value": "(+1) 972-766-6900"
      } ],
      "address": [ {
        "use": "billing",
        "type": "postal",
        "line": [ "P.O. Box 660044" ],
        "city": "Dallas",
        "state": "TX",
        "postalCode": "75266-0044",
        "country": "USA"
      } ]
    },
    "request": {
      "method": "PUT",
      "url": "Organization/b6622449-55f8-4ff8-a6e4-95e7b4ce54fa"
    }
  }, {
    "fullUrl": "https://madie.cms.gov/Practitioner/c08c6bc4-233e-4af1-812d-85c0458e2396",
    "resource": {
      "resourceType": "Practitioner",
      "id": "c08c6bc4-233e-4af1-812d-85c0458e2396",
      "meta": {
        "profile": [ "http://hl7.org/fhir/us/qicore/StructureDefinition/qicore-practitioner" ]
      },
      "identifier": [ {
        "system": "http://hl7.org/fhir/sid/us-npi",
        "value": "9999999896"
      } ],
      "name": [ {
        "family": "Evil",
        "prefix": [ "Dr" ]
      } ]
    },
    "request": {
      "method": "PUT",
      "url": "Practitioner/c08c6bc4-233e-4af1-812d-85c0458e2396"
    }
  }, {
    "fullUrl": "https://madie.cms.gov/MeasureReport/4232354f-3af2-41f8-8779-868cadd081f5",
    "resource": {
      "resourceType": "MeasureReport",
      "id": "4232354f-3af2-41f8-8779-868cadd081f5",
      "meta": {
        "profile": [ "http://hl7.org/fhir/us/cqfmeasures/StructureDefinition/test-case-cqfm" ]
      },
      "contained": [ {
        "resourceType": "Parameters",
        "id": "516a323a-bccc-4bc7-8f9f-454a5ffc798c-parameters",
        "parameter": [ {
          "name": "subject",
          "valueString": "d5991213-5237-4eb3-a6e9-61404f836d3b"
        } ]
      } ],
      "extension": [ {
        "url": "http://hl7.org/fhir/StructureDefinition/cqf-inputParameters",
        "valueReference": {
          "reference": "#516a323a-bccc-4bc7-8f9f-454a5ffc798c-parameters"
        }
      }, {
        "url": "http://hl7.org/fhir/us/cqfmeasures/StructureDefinition/cqfm-testCaseDescription",
        "valueMarkdown": "Principal diagnosis not in value set\n"
      } ],
      "modifierExtension": [ {
        "url": "http://hl7.org/fhir/us/cqfmeasures/StructureDefinition/cqfm-isTestCase",
        "valueBoolean": true
      } ],
      "status": "complete",
      "type": "individual",
      "measure": "https://madie.cms.gov/Measure/CMS71FHIRSTKAnticoagAFFlutter",
      "period": {
        "start": "2026-01-01",
        "end": "2026-12-31"
      },
      "group": [ {
        "id": "Group_1",
        "population": [ {
          "id": "InitialPopulation_1",
          "code": {
            "coding": [ {
              "system": "http://terminology.hl7.org/CodeSystem/measure-population",
              "code": "initial-population",
              "display": "Initial Population"
            } ]
          },
          "count": 0
        }, {
          "id": "Denominator_1",
          "code": {
            "coding": [ {
              "system": "http://terminology.hl7.org/CodeSystem/measure-population",
              "code": "denominator",
              "display": "Denominator"
            } ]
          },
          "count": 0
        }, {
          "id": "DenominatorExclusion_1",
          "code": {
            "coding": [ {
              "system": "http://terminology.hl7.org/CodeSystem/measure-population",
              "code": "denominator-exclusion",
              "display": "Denominator Exclusion"
            } ]
          },
          "count": 0
        }, {
          "id": "Numerator_1",
          "code": {
            "coding": [ {
              "system": "http://terminology.hl7.org/CodeSystem/measure-population",
              "code": "numerator",
              "display": "Numerator"
            } ]
          },
          "count": 0
        }, {
          "id": "DenominatorException_1",
          "code": {
            "coding": [ {
              "system": "http://terminology.hl7.org/CodeSystem/measure-population",
              "code": "denominator-exception",
              "display": "Denominator Exception"
            } ]
          },
          "count": 0
        } ],
        "measureScore": {
          "value": 0.0
        }
      } ],
      "evaluatedResource": [ {
        "reference": "Patient/d5991213-5237-4eb3-a6e9-61404f836d3b"
      }, {
        "reference": "Encounter/74a4f4e5-e330-4170-945f-d625ef425ca7"
      }, {
        "reference": "Coverage/30b7bc40-ba6f-4abe-b91f-fb81f3ea9447"
      }, {
        "reference": "Condition/9a098daf-d0ce-4e59-9991-0e222af22539"
      }, {
        "reference": "Claim/5e838ab1-2210-4c2d-b2eb-5a95817fd66b"
      }, {
        "reference": "Organization/b6622449-55f8-4ff8-a6e4-95e7b4ce54fa"
      }, {
        "reference": "Practitioner/c08c6bc4-233e-4af1-812d-85c0458e2396"
      } ]
    },
    "request": {
      "method": "PUT",
      "url": "MeasureReport/4232354f-3af2-41f8-8779-868cadd081f5"
    }
  } ]
}