{
  "resourceType": "Bundle",
  "id": "633c9d030968f8012250fc8c",
  "type": "transaction",
  "entry": [ {
    "fullUrl": "https://madie.cms.gov/Patient/017a2267-f463-47a6-8b8b-dc91465e0869",
    "resource": {
      "resourceType": "Patient",
      "id": "017a2267-f463-47a6-8b8b-dc91465e0869",
      "meta": {
        "profile": [ "http://hl7.org/fhir/us/qicore/StructureDefinition/qicore-patient" ]
      },
      "text": {
        "status": "generated",
        "div": "<div xmlns=\"http://www.w3.org/1999/xhtml\"><div class=\"hapiHeaderText\">MedDCPatRefDuringEncInp <b>DENEXCEPPASS </b></div><table class=\"hapiPropertyTable\"><tbody><tr><td>Identifier</td><td>0c63b215784ea7e3383559263b15cd7e</td></tr><tr><td>Date of birth</td><td><span>23 May 1954</span></td></tr></tbody></table></div>"
      },
      "extension": [ {
        "url": "http://hl7.org/fhir/us/core/StructureDefinition/us-core-race",
        "extension": [ {
          "url": "ombCategory",
          "valueCoding": {
            "system": "urn:oid:2.16.840.1.113883.6.238",
            "code": "1002-5",
            "display": "American Indian or Alaska Native",
            "userSelected": true
          }
        }, {
          "url": "text",
          "valueString": "American Indian or Alaska Native"
        } ]
      }, {
        "url": "http://hl7.org/fhir/us/core/StructureDefinition/us-core-ethnicity",
        "extension": [ {
          "url": "ombCategory",
          "valueCoding": {
            "system": "urn:oid:2.16.840.1.113883.6.238",
            "code": "2135-2",
            "display": "Hispanic or Latino",
            "userSelected": true
          }
        }, {
          "url": "text",
          "valueString": "Hispanic or Latino"
        } ]
      } ],
      "identifier": [ {
        "type": {
          "coding": [ {
            "system": "http://terminology.hl7.org/CodeSystem/v2-0203",
            "code": "MR"
          } ]
        },
        "system": "https://bonnie-fhir.healthit.gov/",
        "value": "633c9d030968f8012250fc8c"
      } ],
      "active": true,
      "name": [ {
        "use": "usual",
        "family": "DENEXCEPPass",
        "given": [ "MedDCMedReasonfDuringEncInpTask Reject" ]
      } ],
      "gender": "female",
      "birthDate": "1955-05-23"
    },
    "request": {
      "method": "PUT",
      "url": "Patient/017a2267-f463-47a6-8b8b-dc91465e0869"
    }
  }, {
    "fullUrl": "https://madie.cms.gov/Encounter/9aaa0104-2249-4253-85bb-ab3cfc1fa6f2",
    "resource": {
      "resourceType": "Encounter",
      "id": "9aaa0104-2249-4253-85bb-ab3cfc1fa6f2",
      "meta": {
        "profile": [ "http://hl7.org/fhir/us/qicore/StructureDefinition/qicore-encounter" ]
      },
      "status": "finished",
      "class": {
        "system": "http://terminology.hl7.org/CodeSystem/v3-ActCode",
        "code": "IMP",
        "display": "inpatient encounter"
      },
      "type": [ {
        "coding": [ {
          "system": "http://snomed.info/sct",
          "code": "32485007"
        } ]
      } ],
      "subject": {
        "reference": "Patient/017a2267-f463-47a6-8b8b-dc91465e0869"
      },
      "period": {
        "start": "2026-11-20T08:00:00.000Z",
        "end": "2026-11-24T08:15:00.000Z"
      },
      "length": {
        "value": 4,
        "unit": "days"
      },
      "reasonReference": [ {
        "reference": "Condition/f0e67904-c691-451b-a099-242c02f7e5e1"
      } ]
    },
    "request": {
      "method": "PUT",
      "url": "Encounter/9aaa0104-2249-4253-85bb-ab3cfc1fa6f2"
    }
  }, {
    "fullUrl": "https://madie.cms.gov/Claim/3ffc5d34-c805-4e08-b9b7-bdc7438e7e60",
    "resource": {
      "resourceType": "Claim",
      "id": "3ffc5d34-c805-4e08-b9b7-bdc7438e7e60",
      "meta": {
        "profile": [ "http://hl7.org/fhir/us/qicore/StructureDefinition/qicore-claim" ]
      },
      "status": "active",
      "type": {
        "coding": [ {
          "system": "http://terminology.hl7.org/CodeSystem/claim-type",
          "code": "institutional"
        } ]
      },
      "use": "claim",
      "patient": {
        "reference": "Patient/017a2267-f463-47a6-8b8b-dc91465e0869"
      },
      "created": "2026-12-01",
      "provider": {
        "reference": "Practitioner/practitioner-123456"
      },
      "priority": {
        "coding": [ {
          "system": "http://terminology.hl7.org/CodeSystem/processpriority",
          "code": "normal"
        } ]
      },
      "diagnosis": [ {
        "sequence": 1,
        "diagnosisCodeableConcept": {
          "coding": [ {
            "system": "http://hl7.org/fhir/sid/icd-10-cm",
            "code": "I63.00"
          } ]
        },
        "type": [ {
          "coding": [ {
            "system": "http://terminology.hl7.org/CodeSystem/ex-diagnosistype",
            "code": "principal"
          } ]
        } ]
      } ],
      "insurance": [ {
        "sequence": 1,
        "focal": true,
        "coverage": {
          "reference": "Coverage/5fa041661c76ba66d9959367"
        }
      } ],
      "item": [ {
        "sequence": 1,
        "diagnosisSequence": [ 1 ],
        "productOrService": {
          "coding": [ {
            "system": "http://terminology.hl7.org/CodeSystem/ex-USCLS",
            "code": "99555"
          } ]
        },
        "encounter": [ {
          "reference": "Encounter/9aaa0104-2249-4253-85bb-ab3cfc1fa6f2"
        } ]
      } ]
    },
    "request": {
      "method": "PUT",
      "url": "Claim/3ffc5d34-c805-4e08-b9b7-bdc7438e7e60"
    }
  }, {
    "fullUrl": "https://madie.cms.gov/MedicationRequest/525930c4-20d2-4988-8e3a-d7e8c78bb6d0",
    "resource": {
      "resourceType": "MedicationRequest",
      "id": "525930c4-20d2-4988-8e3a-d7e8c78bb6d0",
      "meta": {
        "profile": [ "http://hl7.org/fhir/us/qicore/StructureDefinition/qicore-medicationrequest" ]
      },
      "status": "active",
      "intent": "order",
      "category": [ {
        "coding": [ {
          "system": "http://terminology.hl7.org/CodeSystem/medicationrequest-category",
          "code": "community",
          "display": "Community",
          "userSelected": true
        } ]
      } ],
      "medicationCodeableConcept": {
        "coding": [ {
          "system": "http://www.nlm.nih.gov/research/umls/rxnorm",
          "code": "308351"
        } ]
      },
      "subject": {
        "reference": "Patient/017a2267-f463-47a6-8b8b-dc91465e0869"
      },
      "authoredOn": "2026-11-20T08:00:00.000Z",
      "requester": {
        "reference": "Practitioner/example"
      }
    },
    "request": {
      "method": "PUT",
      "url": "MedicationRequest/525930c4-20d2-4988-8e3a-d7e8c78bb6d0"
    }
  }, {
    "fullUrl": "https://madie.cms.gov/Task/58a8704f-7543-4459-9a83-8cb0767195e1",
    "resource": {
      "resourceType": "Task",
      "id": "58a8704f-7543-4459-9a83-8cb0767195e1",
      "meta": {
        "profile": [ "http://hl7.org/fhir/us/qicore/StructureDefinition/qicore-taskrejected" ]
      },
      "status": "rejected",
      "statusReason": {
        "coding": [ {
          "system": "http://snomed.info/sct",
          "code": "410536001",
          "userSelected": true
        } ]
      },
      "intent": "order",
      "code": {
        "coding": [ {
          "system": "http://hl7.org/fhir/CodeSystem/task-code",
          "code": "fulfill"
        } ]
      },
      "focus": {
        "reference": "MedicationRequest/525930c4-20d2-4988-8e3a-d7e8c78bb6d0"
      },
      "executionPeriod": {
        "start": "2026-11-20T08:00:00.000Z",
        "end": "2026-11-24T08:15:00.000Z"
      }
    },
    "request": {
      "method": "PUT",
      "url": "Task/58a8704f-7543-4459-9a83-8cb0767195e1"
    }
  }, {
    "fullUrl": "https://madie.cms.gov/Coverage/36c92d63-b9cc-42ef-bbd9-8f5462e0cbea",
    "resource": {
      "resourceType": "Coverage",
      "id": "36c92d63-b9cc-42ef-bbd9-8f5462e0cbea",
      "meta": {
        "profile": [ "http://hl7.org/fhir/us/qicore/StructureDefinition/qicore-coverage" ]
      },
      "status": "active",
      "subscriberId": "523435",
      "beneficiary": {
        "reference": "Patient/017a2267-f463-47a6-8b8b-dc91465e0869"
      },
      "relationship": {
        "coding": [ {
          "system": "http://terminology.hl7.org/CodeSystem/subscriber-relationship",
          "code": "self"
        } ]
      },
      "payor": [ {
        "reference": "Organization/5eb6bc59-2427-4b7a-99b6-f5f8a1440666"
      } ]
    },
    "request": {
      "method": "PUT",
      "url": "Coverage/36c92d63-b9cc-42ef-bbd9-8f5462e0cbea"
    }
  }, {
    "fullUrl": "https://madie.cms.gov/Procedure/b54b1049-de5e-4e15-aac2-581563118ee8",
    "resource": {
      "resourceType": "Procedure",
      "id": "b54b1049-de5e-4e15-aac2-581563118ee8",
      "meta": {
        "profile": [ "http://hl7.org/fhir/us/qicore/StructureDefinition/qicore-procedure" ]
      },
      "extension": [ {
        "url": "http://hl7.org/fhir/us/qicore/StructureDefinition/qicore-recorded",
        "valueDateTime": "2014-04-05T13:35:00.000Z"
      } ],
      "status": "completed",
      "code": {
        "coding": [ {
          "system": "http://www.cms.gov/Medicare/Coding/ICD10",
          "code": "02560ZZ"
        }, {
          "system": "http://snomed.info/sct",
          "code": "175095005"
        } ]
      },
      "subject": {
        "reference": "Patient/017a2267-f463-47a6-8b8b-dc91465e0869"
      },
      "performedPeriod": {
        "start": "2026-11-20T06:00:00.000Z",
        "end": "2026-11-20T07:15:00.000Z"
      }
    },
    "request": {
      "method": "PUT",
      "url": "Procedure/b54b1049-de5e-4e15-aac2-581563118ee8"
    }
  }, {
    "fullUrl": "https://madie.cms.gov/Condition/f0e67904-c691-451b-a099-242c02f7e5e1",
    "resource": {
      "resourceType": "Condition",
      "id": "f0e67904-c691-451b-a099-242c02f7e5e1",
      "meta": {
        "profile": [ "http://hl7.org/fhir/us/qicore/StructureDefinition/qicore-condition-encounter-diagnosis" ]
      },
      "clinicalStatus": {
        "coding": [ {
          "system": "http://terminology.hl7.org/CodeSystem/condition-clinical",
          "code": "active"
        } ]
      },
      "verificationStatus": {
        "coding": [ {
          "system": "http://terminology.hl7.org/CodeSystem/condition-ver-status",
          "code": "confirmed"
        } ]
      },
      "category": [ {
        "coding": [ {
          "system": "http://terminology.hl7.org/CodeSystem/condition-category",
          "code": "encounter-diagnosis",
          "display": "Encounter Diagnosis"
        } ]
      } ],
      "code": {
        "coding": [ {
          "system": "http://snomed.info/sct",
          "version": "2021-09",
          "code": "111297002",
          "display": "Nonparalytic stroke (disorder)",
          "userSelected": true
        } ]
      },
      "subject": {
        "reference": "Patient/017a2267-f463-47a6-8b8b-dc91465e0869"
      },
      "recordedDate": "2026-10-13T08:00:00.000Z"
    },
    "request": {
      "method": "PUT",
      "url": "Condition/f0e67904-c691-451b-a099-242c02f7e5e1"
    }
  }, {
    "fullUrl": "https://madie.cms.gov/Organization/5eb6bc59-2427-4b7a-99b6-f5f8a1440666",
    "resource": {
      "resourceType": "Organization",
      "id": "5eb6bc59-2427-4b7a-99b6-f5f8a1440666",
      "meta": {
        "profile": [ "http://hl7.org/fhir/us/qicore/StructureDefinition/qicore-organization" ]
      },
      "identifier": [ {
        "use": "temp",
        "system": "urn:oid:2.16.840.1.113883.4.4",
        "value": "21-3259825"
      } ],
      "active": true,
      "type": [ {
        "coding": [ {
          "system": "http://terminology.hl7.org/CodeSystem/organization-type",
          "code": "pay",
          "display": "Payer"
        } ]
      } ],
      "name": "Blue Cross Blue Shield of Texas",
      "telecom": [ {
        "system": "phone",
        "value": "(+1) 972-766-6900"
      } ],
      "address": [ {
        "use": "billing",
        "type": "postal",
        "line": [ "P.O. Box 660044" ],
        "city": "Dallas",
        "state": "TX",
        "postalCode": "75266-0044",
        "country": "USA"
      } ]
    },
    "request": {
      "method": "PUT",
      "url": "Organization/5eb6bc59-2427-4b7a-99b6-f5f8a1440666"
    }
  }, {
    "fullUrl": "https://madie.cms.gov/MeasureReport/3a870421-64af-44eb-8c7a-533079bc2259",
    "resource": {
      "resourceType": "MeasureReport",
      "id": "3a870421-64af-44eb-8c7a-533079bc2259",
      "meta": {
        "profile": [ "http://hl7.org/fhir/us/cqfmeasures/StructureDefinition/test-case-cqfm" ]
      },
      "contained": [ {
        "resourceType": "Parameters",
        "id": "d9d7b460-e075-498a-a2ca-53d18763db2e-parameters",
        "parameter": [ {
          "name": "subject",
          "valueString": "017a2267-f463-47a6-8b8b-dc91465e0869"
        } ]
      } ],
      "extension": [ {
        "url": "http://hl7.org/fhir/StructureDefinition/cqf-inputParameters",
        "valueReference": {
          "reference": "#d9d7b460-e075-498a-a2ca-53d18763db2e-parameters"
        }
      }, {
        "url": "http://hl7.org/fhir/us/cqfmeasures/StructureDefinition/cqfm-testCaseDescription",
        "valueMarkdown": "Patient did not receive anticoagulant, Medical Reason\n"
      } ],
      "modifierExtension": [ {
        "url": "http://hl7.org/fhir/us/cqfmeasures/StructureDefinition/cqfm-isTestCase",
        "valueBoolean": true
      } ],
      "status": "complete",
      "type": "individual",
      "measure": "https://madie.cms.gov/Measure/CMS71FHIRSTKAnticoagAFFlutter",
      "period": {
        "start": "2026-01-01",
        "end": "2026-12-31"
      },
      "group": [ {
        "id": "Group_1",
        "population": [ {
          "id": "InitialPopulation_1",
          "code": {
            "coding": [ {
              "system": "http://terminology.hl7.org/CodeSystem/measure-population",
              "code": "initial-population",
              "display": "Initial Population"
            } ]
          },
          "count": 1
        }, {
          "id": "Denominator_1",
          "code": {
            "coding": [ {
              "system": "http://terminology.hl7.org/CodeSystem/measure-population",
              "code": "denominator",
              "display": "Denominator"
            } ]
          },
          "count": 1
        }, {
          "id": "DenominatorExclusion_1",
          "code": {
            "coding": [ {
              "system": "http://terminology.hl7.org/CodeSystem/measure-population",
              "code": "denominator-exclusion",
              "display": "Denominator Exclusion"
            } ]
          },
          "count": 0
        }, {
          "id": "Numerator_1",
          "code": {
            "coding": [ {
              "system": "http://terminology.hl7.org/CodeSystem/measure-population",
              "code": "numerator",
              "display": "Numerator"
            } ]
          },
          "count": 0
        }, {
          "id": "DenominatorException_1",
          "code": {
            "coding": [ {
              "system": "http://terminology.hl7.org/CodeSystem/measure-population",
              "code": "denominator-exception",
              "display": "Denominator Exception"
            } ]
          },
          "count": 1
        } ],
        "measureScore": {
          "value": 0.0
        }
      } ],
      "evaluatedResource": [ {
        "reference": "Patient/017a2267-f463-47a6-8b8b-dc91465e0869"
      }, {
        "reference": "Encounter/9aaa0104-2249-4253-85bb-ab3cfc1fa6f2"
      }, {
        "reference": "Claim/3ffc5d34-c805-4e08-b9b7-bdc7438e7e60"
      }, {
        "reference": "MedicationRequest/525930c4-20d2-4988-8e3a-d7e8c78bb6d0"
      }, {
        "reference": "Task/58a8704f-7543-4459-9a83-8cb0767195e1"
      }, {
        "reference": "Coverage/36c92d63-b9cc-42ef-bbd9-8f5462e0cbea"
      }, {
        "reference": "Procedure/b54b1049-de5e-4e15-aac2-581563118ee8"
      }, {
        "reference": "Condition/f0e67904-c691-451b-a099-242c02f7e5e1"
      }, {
        "reference": "Organization/5eb6bc59-2427-4b7a-99b6-f5f8a1440666"
      } ]
    },
    "request": {
      "method": "PUT",
      "url": "MeasureReport/3a870421-64af-44eb-8c7a-533079bc2259"
    }
  } ]
}