{
  "resourceType": "Bundle",
  "id": "633c9d030968f8012250fc6f",
  "type": "transaction",
  "entry": [ {
    "fullUrl": "https://madie.cms.gov/Patient/b29204ac-96ce-4be0-90ad-ae8ecfa4f245",
    "resource": {
      "resourceType": "Patient",
      "id": "b29204ac-96ce-4be0-90ad-ae8ecfa4f245",
      "meta": {
        "profile": [ "http://hl7.org/fhir/us/qicore/StructureDefinition/qicore-patient" ]
      },
      "text": {
        "status": "generated",
        "div": "<div xmlns=\"http://www.w3.org/1999/xhtml\"><div class=\"hapiHeaderText\">MedDCMedReason <b>DENEXCEPPASS </b></div><table class=\"hapiPropertyTable\"><tbody><tr><td>Identifier</td><td>a74a3b413f99bbe600a1f178896a0083</td></tr><tr><td>Date of birth</td><td><span>23 May 1954</span></td></tr></tbody></table></div>"
      },
      "extension": [ {
        "url": "http://hl7.org/fhir/us/core/StructureDefinition/us-core-race",
        "extension": [ {
          "url": "ombCategory",
          "valueCoding": {
            "system": "urn:oid:2.16.840.1.113883.6.238",
            "code": "1002-5",
            "display": "American Indian or Alaska Native",
            "userSelected": true
          }
        }, {
          "url": "text",
          "valueString": "American Indian or Alaska Native"
        } ]
      }, {
        "url": "http://hl7.org/fhir/us/core/StructureDefinition/us-core-ethnicity",
        "extension": [ {
          "url": "ombCategory",
          "valueCoding": {
            "system": "urn:oid:2.16.840.1.113883.6.238",
            "code": "2135-2",
            "display": "Hispanic or Latino",
            "userSelected": true
          }
        }, {
          "url": "text",
          "valueString": "Hispanic or Latino"
        } ]
      } ],
      "identifier": [ {
        "type": {
          "coding": [ {
            "system": "http://terminology.hl7.org/CodeSystem/v2-0203",
            "code": "MR"
          } ]
        },
        "system": "https://bonnie-fhir.healthit.gov/",
        "value": "633c9d030968f8012250fc6f"
      } ],
      "active": true,
      "name": [ {
        "use": "usual",
        "family": "DENEXCEPPass",
        "given": [ "MedDCMedReason" ]
      } ],
      "gender": "female",
      "birthDate": "1955-05-23"
    },
    "request": {
      "method": "PUT",
      "url": "Patient/b29204ac-96ce-4be0-90ad-ae8ecfa4f245"
    }
  }, {
    "fullUrl": "https://madie.cms.gov/Encounter/9975fd4a-06a6-4b63-b781-7d4c03f30c40",
    "resource": {
      "resourceType": "Encounter",
      "id": "9975fd4a-06a6-4b63-b781-7d4c03f30c40",
      "meta": {
        "profile": [ "http://hl7.org/fhir/us/qicore/StructureDefinition/qicore-encounter" ]
      },
      "status": "finished",
      "class": {
        "system": "http://terminology.hl7.org/CodeSystem/v3-ActCode",
        "code": "IMP",
        "display": "inpatient encounter"
      },
      "type": [ {
        "coding": [ {
          "system": "http://snomed.info/sct",
          "code": "32485007"
        } ]
      } ],
      "subject": {
        "reference": "Patient/b29204ac-96ce-4be0-90ad-ae8ecfa4f245"
      },
      "period": {
        "start": "2026-11-20T08:00:00.000Z",
        "end": "2026-11-24T08:15:00.000Z"
      },
      "length": {
        "value": 4,
        "unit": "days"
      },
      "reasonReference": [ {
        "reference": "Condition/ischemic-stroke-19a2"
      } ]
    },
    "request": {
      "method": "PUT",
      "url": "Encounter/9975fd4a-06a6-4b63-b781-7d4c03f30c40"
    }
  }, {
    "fullUrl": "https://madie.cms.gov/MedicationRequest/733ec0d6-d770-4ac5-8da5-d529eac1b88d",
    "resource": {
      "resourceType": "MedicationRequest",
      "id": "733ec0d6-d770-4ac5-8da5-d529eac1b88d",
      "meta": {
        "profile": [ "http://hl7.org/fhir/us/qicore/StructureDefinition/qicore-medicationnotrequested" ]
      },
      "status": "completed",
      "intent": "order",
      "category": [ {
        "coding": [ {
          "system": "http://terminology.hl7.org/CodeSystem/medicationrequest-category",
          "code": "community"
        } ]
      } ],
      "doNotPerform": true,
      "medicationCodeableConcept": {
        "coding": [ {
          "system": "http://www.nlm.nih.gov/research/umls/rxnorm",
          "code": "308351"
        } ]
      },
      "subject": {
        "reference": "Patient/b29204ac-96ce-4be0-90ad-ae8ecfa4f245"
      },
      "authoredOn": "2026-11-24T08:10:00.000Z",
      "requester": {
        "reference": "Practitioner/example"
      },
      "reasonCode": [ {
        "coding": [ {
          "system": "http://snomed.info/sct",
          "code": "183932001"
        } ]
      } ]
    },
    "request": {
      "method": "PUT",
      "url": "MedicationRequest/733ec0d6-d770-4ac5-8da5-d529eac1b88d"
    }
  }, {
    "fullUrl": "https://madie.cms.gov/Task/80caa572-178a-45f8-974e-04a744396b12",
    "resource": {
      "resourceType": "Task",
      "id": "80caa572-178a-45f8-974e-04a744396b12",
      "meta": {
        "profile": [ "http://hl7.org/fhir/us/qicore/StructureDefinition/qicore-taskrejected" ]
      },
      "status": "rejected",
      "statusReason": {
        "coding": [ {
          "system": "http://snomed.info/sct",
          "code": "183932001",
          "userSelected": true
        } ]
      },
      "intent": "order",
      "code": {
        "coding": [ {
          "system": "http://hl7.org/fhir/CodeSystem/task-code",
          "code": "fulfill"
        } ]
      },
      "focus": {
        "reference": "MedicationRequest/733ec0d6-d770-4ac5-8da5-d529eac1b88d"
      },
      "executionPeriod": {
        "start": "2026-11-20T08:00:00.000Z",
        "end": "2026-11-24T08:15:00.000Z"
      }
    },
    "request": {
      "method": "PUT",
      "url": "Task/80caa572-178a-45f8-974e-04a744396b12"
    }
  }, {
    "fullUrl": "https://madie.cms.gov/Claim/e9f5934b-b3e0-4c16-98ab-3b1b4a483f37",
    "resource": {
      "resourceType": "Claim",
      "id": "e9f5934b-b3e0-4c16-98ab-3b1b4a483f37",
      "meta": {
        "profile": [ "http://hl7.org/fhir/us/qicore/StructureDefinition/qicore-claim" ]
      },
      "status": "active",
      "type": {
        "coding": [ {
          "system": "http://terminology.hl7.org/CodeSystem/claim-type",
          "code": "institutional"
        } ]
      },
      "use": "claim",
      "patient": {
        "reference": "Patient/b29204ac-96ce-4be0-90ad-ae8ecfa4f245"
      },
      "created": "2026-12-01",
      "provider": {
        "reference": "Practitioner/practitioner-123456"
      },
      "priority": {
        "coding": [ {
          "system": "http://terminology.hl7.org/CodeSystem/processpriority",
          "code": "normal"
        } ]
      },
      "diagnosis": [ {
        "sequence": 1,
        "diagnosisCodeableConcept": {
          "coding": [ {
            "system": "http://hl7.org/fhir/sid/icd-10-cm",
            "code": "I63.00"
          } ]
        },
        "type": [ {
          "coding": [ {
            "system": "http://terminology.hl7.org/CodeSystem/ex-diagnosistype",
            "code": "principal"
          } ]
        } ]
      } ],
      "insurance": [ {
        "sequence": 1,
        "focal": true,
        "coverage": {
          "reference": "Coverage/5fa041661c76ba66d9959367"
        }
      } ],
      "item": [ {
        "sequence": 1,
        "diagnosisSequence": [ 1 ],
        "productOrService": {
          "coding": [ {
            "system": "http://terminology.hl7.org/CodeSystem/ex-USCLS",
            "code": "99555"
          } ]
        },
        "encounter": [ {
          "reference": "Encounter/9975fd4a-06a6-4b63-b781-7d4c03f30c40"
        } ]
      } ]
    },
    "request": {
      "method": "PUT",
      "url": "Claim/e9f5934b-b3e0-4c16-98ab-3b1b4a483f37"
    }
  }, {
    "fullUrl": "https://madie.cms.gov/Coverage/cd69f86e-d387-4f3c-a273-a92aea32edd8",
    "resource": {
      "resourceType": "Coverage",
      "id": "cd69f86e-d387-4f3c-a273-a92aea32edd8",
      "meta": {
        "profile": [ "http://hl7.org/fhir/us/qicore/StructureDefinition/qicore-coverage" ]
      },
      "status": "active",
      "subscriberId": "523435",
      "beneficiary": {
        "reference": "Patient/b29204ac-96ce-4be0-90ad-ae8ecfa4f245"
      },
      "relationship": {
        "coding": [ {
          "system": "http://terminology.hl7.org/CodeSystem/subscriber-relationship",
          "code": "self"
        } ]
      },
      "payor": [ {
        "reference": "Organization/ba82c80a-6985-435f-9697-5a366edbc4c8"
      } ]
    },
    "request": {
      "method": "PUT",
      "url": "Coverage/cd69f86e-d387-4f3c-a273-a92aea32edd8"
    }
  }, {
    "fullUrl": "https://madie.cms.gov/Procedure/95c13517-ec62-428e-9642-adc925fdcc72",
    "resource": {
      "resourceType": "Procedure",
      "id": "95c13517-ec62-428e-9642-adc925fdcc72",
      "meta": {
        "profile": [ "http://hl7.org/fhir/us/qicore/StructureDefinition/qicore-procedure" ]
      },
      "extension": [ {
        "url": "http://hl7.org/fhir/us/qicore/StructureDefinition/qicore-recorded",
        "valueDateTime": "2014-04-05T13:35:00.000Z"
      } ],
      "status": "completed",
      "code": {
        "coding": [ {
          "system": "http://www.cms.gov/Medicare/Coding/ICD10",
          "code": "02560ZZ"
        }, {
          "system": "http://snomed.info/sct",
          "code": "175095005"
        } ]
      },
      "subject": {
        "reference": "Patient/b29204ac-96ce-4be0-90ad-ae8ecfa4f245"
      },
      "performedPeriod": {
        "start": "2026-11-20T06:00:00.000Z",
        "end": "2026-11-20T07:15:00.000Z"
      }
    },
    "request": {
      "method": "PUT",
      "url": "Procedure/95c13517-ec62-428e-9642-adc925fdcc72"
    }
  }, {
    "fullUrl": "https://madie.cms.gov/Condition/99cd7a52-ae6d-475e-8252-23e1bba1530e",
    "resource": {
      "resourceType": "Condition",
      "id": "99cd7a52-ae6d-475e-8252-23e1bba1530e",
      "meta": {
        "profile": [ "http://hl7.org/fhir/us/qicore/StructureDefinition/qicore-condition-encounter-diagnosis" ]
      },
      "clinicalStatus": {
        "coding": [ {
          "system": "http://terminology.hl7.org/CodeSystem/condition-clinical",
          "code": "active"
        } ]
      },
      "verificationStatus": {
        "coding": [ {
          "system": "http://terminology.hl7.org/CodeSystem/condition-ver-status",
          "code": "confirmed"
        } ]
      },
      "category": [ {
        "coding": [ {
          "system": "http://terminology.hl7.org/CodeSystem/condition-category",
          "code": "encounter-diagnosis",
          "display": "Encounter Diagnosis"
        } ]
      } ],
      "code": {
        "coding": [ {
          "system": "http://snomed.info/sct",
          "version": "2021-09",
          "code": "111297002",
          "display": "Nonparalytic stroke (disorder)",
          "userSelected": true
        } ]
      },
      "subject": {
        "reference": "Patient/b29204ac-96ce-4be0-90ad-ae8ecfa4f245"
      },
      "recordedDate": "2026-10-13T08:00:00.000Z"
    },
    "request": {
      "method": "PUT",
      "url": "Condition/99cd7a52-ae6d-475e-8252-23e1bba1530e"
    }
  }, {
    "fullUrl": "https://madie.cms.gov/Organization/ba82c80a-6985-435f-9697-5a366edbc4c8",
    "resource": {
      "resourceType": "Organization",
      "id": "ba82c80a-6985-435f-9697-5a366edbc4c8",
      "meta": {
        "profile": [ "http://hl7.org/fhir/us/qicore/StructureDefinition/qicore-organization" ]
      },
      "identifier": [ {
        "use": "temp",
        "system": "urn:oid:2.16.840.1.113883.4.4",
        "value": "21-3259825"
      } ],
      "active": true,
      "type": [ {
        "coding": [ {
          "system": "http://terminology.hl7.org/CodeSystem/organization-type",
          "code": "pay",
          "display": "Payer"
        } ]
      } ],
      "name": "Blue Cross Blue Shield of Texas",
      "telecom": [ {
        "system": "phone",
        "value": "(+1) 972-766-6900"
      } ],
      "address": [ {
        "use": "billing",
        "type": "postal",
        "line": [ "P.O. Box 660044" ],
        "city": "Dallas",
        "state": "TX",
        "postalCode": "75266-0044",
        "country": "USA"
      } ]
    },
    "request": {
      "method": "PUT",
      "url": "Organization/ba82c80a-6985-435f-9697-5a366edbc4c8"
    }
  }, {
    "fullUrl": "https://madie.cms.gov/MeasureReport/e5339c1c-c4cd-497b-97a1-ed9fb1a1bc2e",
    "resource": {
      "resourceType": "MeasureReport",
      "id": "e5339c1c-c4cd-497b-97a1-ed9fb1a1bc2e",
      "meta": {
        "profile": [ "http://hl7.org/fhir/us/cqfmeasures/StructureDefinition/test-case-cqfm" ]
      },
      "contained": [ {
        "resourceType": "Parameters",
        "id": "a9731974-d095-4b0d-8c13-7cbd223e74ae-parameters",
        "parameter": [ {
          "name": "subject",
          "valueString": "b29204ac-96ce-4be0-90ad-ae8ecfa4f245"
        } ]
      } ],
      "extension": [ {
        "url": "http://hl7.org/fhir/StructureDefinition/cqf-inputParameters",
        "valueReference": {
          "reference": "#a9731974-d095-4b0d-8c13-7cbd223e74ae-parameters"
        }
      }, {
        "url": "http://hl7.org/fhir/us/cqfmeasures/StructureDefinition/cqfm-testCaseDescription",
        "valueMarkdown": "Patient did not receive anticoagulant on dc due to medical reason\n"
      } ],
      "modifierExtension": [ {
        "url": "http://hl7.org/fhir/us/cqfmeasures/StructureDefinition/cqfm-isTestCase",
        "valueBoolean": true
      } ],
      "status": "complete",
      "type": "individual",
      "measure": "https://madie.cms.gov/Measure/CMS71FHIRSTKAnticoagAFFlutter",
      "period": {
        "start": "2026-01-01",
        "end": "2026-12-31"
      },
      "group": [ {
        "id": "Group_1",
        "population": [ {
          "id": "InitialPopulation_1",
          "code": {
            "coding": [ {
              "system": "http://terminology.hl7.org/CodeSystem/measure-population",
              "code": "initial-population",
              "display": "Initial Population"
            } ]
          },
          "count": 1
        }, {
          "id": "Denominator_1",
          "code": {
            "coding": [ {
              "system": "http://terminology.hl7.org/CodeSystem/measure-population",
              "code": "denominator",
              "display": "Denominator"
            } ]
          },
          "count": 1
        }, {
          "id": "DenominatorExclusion_1",
          "code": {
            "coding": [ {
              "system": "http://terminology.hl7.org/CodeSystem/measure-population",
              "code": "denominator-exclusion",
              "display": "Denominator Exclusion"
            } ]
          },
          "count": 0
        }, {
          "id": "Numerator_1",
          "code": {
            "coding": [ {
              "system": "http://terminology.hl7.org/CodeSystem/measure-population",
              "code": "numerator",
              "display": "Numerator"
            } ]
          },
          "count": 0
        }, {
          "id": "DenominatorException_1",
          "code": {
            "coding": [ {
              "system": "http://terminology.hl7.org/CodeSystem/measure-population",
              "code": "denominator-exception",
              "display": "Denominator Exception"
            } ]
          },
          "count": 1
        } ],
        "measureScore": {
          "value": 0.0
        }
      } ],
      "evaluatedResource": [ {
        "reference": "Patient/b29204ac-96ce-4be0-90ad-ae8ecfa4f245"
      }, {
        "reference": "Encounter/9975fd4a-06a6-4b63-b781-7d4c03f30c40"
      }, {
        "reference": "MedicationRequest/733ec0d6-d770-4ac5-8da5-d529eac1b88d"
      }, {
        "reference": "Task/80caa572-178a-45f8-974e-04a744396b12"
      }, {
        "reference": "Claim/e9f5934b-b3e0-4c16-98ab-3b1b4a483f37"
      }, {
        "reference": "Coverage/cd69f86e-d387-4f3c-a273-a92aea32edd8"
      }, {
        "reference": "Procedure/95c13517-ec62-428e-9642-adc925fdcc72"
      }, {
        "reference": "Condition/99cd7a52-ae6d-475e-8252-23e1bba1530e"
      }, {
        "reference": "Organization/ba82c80a-6985-435f-9697-5a366edbc4c8"
      } ]
    },
    "request": {
      "method": "PUT",
      "url": "MeasureReport/e5339c1c-c4cd-497b-97a1-ed9fb1a1bc2e"
    }
  } ]
}