{
  "resourceType": "Bundle",
  "id": "633c9d040968f8012250fca3",
  "type": "transaction",
  "entry": [ {
    "fullUrl": "https://madie.cms.gov/Patient/a998e27f-e0a9-475d-80e8-0e9344591294",
    "resource": {
      "resourceType": "Patient",
      "id": "a998e27f-e0a9-475d-80e8-0e9344591294",
      "meta": {
        "profile": [ "http://hl7.org/fhir/us/qicore/StructureDefinition/qicore-patient" ]
      },
      "text": {
        "status": "generated",
        "div": "<div xmlns=\"http://www.w3.org/1999/xhtml\"><div class=\"hapiHeaderText\">CMOdurED_ED=1hrNoObsBFEnc <b>DENEXPASS </b></div><table class=\"hapiPropertyTable\"><tbody><tr><td>Identifier</td><td>670854918483ca8b7894283bd5cddbcf5037c5392991b8777bf3c4f78ed05f0b</td></tr><tr><td>Date of birth</td><td><span>18 September 1985</span></td></tr></tbody></table></div>"
      },
      "extension": [ {
        "url": "http://hl7.org/fhir/us/core/StructureDefinition/us-core-race",
        "extension": [ {
          "url": "ombCategory",
          "valueCoding": {
            "system": "urn:oid:2.16.840.1.113883.6.238",
            "code": "1002-5",
            "display": "American Indian or Alaska Native",
            "userSelected": true
          }
        }, {
          "url": "text",
          "valueString": "American Indian or Alaska Native"
        } ]
      }, {
        "url": "http://hl7.org/fhir/us/core/StructureDefinition/us-core-ethnicity",
        "extension": [ {
          "url": "ombCategory",
          "valueCoding": {
            "system": "urn:oid:2.16.840.1.113883.6.238",
            "code": "2135-2",
            "display": "Hispanic or Latino",
            "userSelected": true
          }
        }, {
          "url": "text",
          "valueString": "Hispanic or Latino"
        } ]
      } ],
      "identifier": [ {
        "type": {
          "coding": [ {
            "system": "http://terminology.hl7.org/CodeSystem/v2-0203",
            "code": "MR"
          } ]
        },
        "system": "https://bonnie-fhir.healthit.gov/",
        "value": "633c9d040968f8012250fca3"
      } ],
      "active": true,
      "name": [ {
        "use": "usual",
        "family": "DENEXPASS",
        "given": [ "CMOdurEDEDEQ1hrNoObsBFEncdoNotPerform" ]
      } ],
      "gender": "female",
      "birthDate": "1986-09-18"
    },
    "request": {
      "method": "PUT",
      "url": "Patient/a998e27f-e0a9-475d-80e8-0e9344591294"
    }
  }, {
    "fullUrl": "https://madie.cms.gov/Condition/9f9f9936-0877-485a-90f7-829e06b7da69",
    "resource": {
      "resourceType": "Condition",
      "id": "9f9f9936-0877-485a-90f7-829e06b7da69",
      "meta": {
        "profile": [ "http://hl7.org/fhir/us/qicore/StructureDefinition/qicore-condition-problems-health-concerns" ]
      },
      "clinicalStatus": {
        "coding": [ {
          "system": "http://terminology.hl7.org/CodeSystem/condition-clinical",
          "code": "inactive"
        } ]
      },
      "verificationStatus": {
        "coding": [ {
          "system": "http://terminology.hl7.org/CodeSystem/condition-ver-status",
          "code": "confirmed"
        } ]
      },
      "category": [ {
        "coding": [ {
          "system": "http://terminology.hl7.org/CodeSystem/condition-category",
          "code": "problem-list-item",
          "display": "Problem List Item"
        } ]
      } ],
      "code": {
        "coding": [ {
          "system": "http://hl7.org/fhir/sid/icd-10-cm",
          "code": "I48.20"
        }, {
          "system": "http://hl7.org/fhir/sid/icd-10-cm",
          "code": "I48.0"
        }, {
          "system": "http://snomed.info/sct",
          "code": "5370000"
        } ]
      },
      "subject": {
        "reference": "Patient/a998e27f-e0a9-475d-80e8-0e9344591294"
      },
      "onsetDateTime": "2026-10-01T09:01:00.000Z",
      "abatementDateTime": "2026-10-12T00:15:00.000Z"
    },
    "request": {
      "method": "PUT",
      "url": "Condition/9f9f9936-0877-485a-90f7-829e06b7da69"
    }
  }, {
    "fullUrl": "https://madie.cms.gov/Encounter/f581db9a-333d-48b0-ade9-8fa080ffab59",
    "resource": {
      "resourceType": "Encounter",
      "id": "f581db9a-333d-48b0-ade9-8fa080ffab59",
      "meta": {
        "profile": [ "http://hl7.org/fhir/us/qicore/StructureDefinition/qicore-encounter" ]
      },
      "status": "finished",
      "class": {
        "system": "http://terminology.hl7.org/CodeSystem/v3-ActCode",
        "code": "EMER",
        "display": "emergency"
      },
      "type": [ {
        "coding": [ {
          "system": "http://snomed.info/sct",
          "code": "4525004"
        } ]
      } ],
      "subject": {
        "reference": "Patient/a998e27f-e0a9-475d-80e8-0e9344591294"
      },
      "period": {
        "start": "2026-10-01T09:01:00.000Z",
        "end": "2026-10-01T12:15:00.000Z"
      },
      "length": {
        "value": 0,
        "unit": "days"
      }
    },
    "request": {
      "method": "PUT",
      "url": "Encounter/f581db9a-333d-48b0-ade9-8fa080ffab59"
    }
  }, {
    "fullUrl": "https://madie.cms.gov/Encounter/c6ab2288-0551-42aa-93da-43ab62b29f99",
    "resource": {
      "resourceType": "Encounter",
      "id": "c6ab2288-0551-42aa-93da-43ab62b29f99",
      "meta": {
        "profile": [ "http://hl7.org/fhir/us/qicore/StructureDefinition/qicore-encounter" ]
      },
      "status": "finished",
      "class": {
        "system": "http://terminology.hl7.org/CodeSystem/v3-ActCode",
        "code": "IMP",
        "display": "inpatient encounter"
      },
      "type": [ {
        "coding": [ {
          "system": "http://snomed.info/sct",
          "code": "32485007"
        } ]
      } ],
      "subject": {
        "reference": "Patient/a998e27f-e0a9-475d-80e8-0e9344591294"
      },
      "period": {
        "start": "2026-10-01T13:15:00.000Z",
        "end": "2026-10-12T00:15:00.000Z"
      },
      "length": {
        "value": 11,
        "unit": "days"
      },
      "reasonReference": [ {
        "reference": "Condition/9f9f9936-0877-485a-90f7-829e06b7da69"
      } ]
    },
    "request": {
      "method": "PUT",
      "url": "Encounter/c6ab2288-0551-42aa-93da-43ab62b29f99"
    }
  }, {
    "fullUrl": "https://madie.cms.gov/ServiceRequest/9fb0a215-7b03-4493-bf74-2a1a097c374f",
    "resource": {
      "resourceType": "ServiceRequest",
      "id": "9fb0a215-7b03-4493-bf74-2a1a097c374f",
      "meta": {
        "profile": [ "http://hl7.org/fhir/us/qicore/StructureDefinition/qicore-servicerequest" ]
      },
      "status": "active",
      "intent": "order",
      "doNotPerform": false,
      "code": {
        "coding": [ {
          "system": "http://snomed.info/sct",
          "code": "133918004"
        } ]
      },
      "subject": {
        "reference": "Patient/a998e27f-e0a9-475d-80e8-0e9344591294"
      },
      "authoredOn": "2026-10-01T09:15:00.000Z"
    },
    "request": {
      "method": "PUT",
      "url": "ServiceRequest/9fb0a215-7b03-4493-bf74-2a1a097c374f"
    }
  }, {
    "fullUrl": "https://madie.cms.gov/Coverage/4dca8a5d-e7c4-4fa8-b438-dbaa368c3339",
    "resource": {
      "resourceType": "Coverage",
      "id": "4dca8a5d-e7c4-4fa8-b438-dbaa368c3339",
      "meta": {
        "profile": [ "http://hl7.org/fhir/us/qicore/StructureDefinition/qicore-coverage" ]
      },
      "status": "active",
      "subscriberId": "523435",
      "beneficiary": {
        "reference": "Patient/a998e27f-e0a9-475d-80e8-0e9344591294"
      },
      "relationship": {
        "coding": [ {
          "system": "http://terminology.hl7.org/CodeSystem/subscriber-relationship",
          "code": "self"
        } ]
      },
      "payor": [ {
        "reference": "Organization/f813eec7-26e0-4885-b5ca-bc110dff12be"
      } ]
    },
    "request": {
      "method": "PUT",
      "url": "Coverage/4dca8a5d-e7c4-4fa8-b438-dbaa368c3339"
    }
  }, {
    "fullUrl": "https://madie.cms.gov/Condition/e0549d64-58cc-4b81-bfb9-229d386e442b",
    "resource": {
      "resourceType": "Condition",
      "id": "e0549d64-58cc-4b81-bfb9-229d386e442b",
      "meta": {
        "profile": [ "http://hl7.org/fhir/us/qicore/StructureDefinition/qicore-condition-encounter-diagnosis" ]
      },
      "clinicalStatus": {
        "coding": [ {
          "system": "http://terminology.hl7.org/CodeSystem/condition-clinical",
          "code": "active"
        } ]
      },
      "verificationStatus": {
        "coding": [ {
          "system": "http://terminology.hl7.org/CodeSystem/condition-ver-status",
          "code": "confirmed"
        } ]
      },
      "category": [ {
        "coding": [ {
          "system": "http://terminology.hl7.org/CodeSystem/condition-category",
          "code": "encounter-diagnosis",
          "display": "Encounter Diagnosis"
        } ]
      } ],
      "code": {
        "coding": [ {
          "system": "http://snomed.info/sct",
          "version": "2021-09",
          "code": "111297002",
          "display": "Nonparalytic stroke (disorder)",
          "userSelected": true
        } ]
      },
      "subject": {
        "reference": "Patient/a998e27f-e0a9-475d-80e8-0e9344591294"
      },
      "recordedDate": "2026-10-13T08:00:00.000Z"
    },
    "request": {
      "method": "PUT",
      "url": "Condition/e0549d64-58cc-4b81-bfb9-229d386e442b"
    }
  }, {
    "fullUrl": "https://madie.cms.gov/Claim/29a934da-7418-4470-bb24-d8f9d4f8afe4",
    "resource": {
      "resourceType": "Claim",
      "id": "29a934da-7418-4470-bb24-d8f9d4f8afe4",
      "meta": {
        "profile": [ "http://hl7.org/fhir/us/qicore/StructureDefinition/qicore-claim" ]
      },
      "status": "active",
      "type": {
        "coding": [ {
          "system": "http://terminology.hl7.org/CodeSystem/claim-type",
          "code": "institutional"
        } ]
      },
      "use": "claim",
      "patient": {
        "reference": "Patient/a998e27f-e0a9-475d-80e8-0e9344591294"
      },
      "created": "2026-12-01",
      "provider": {
        "reference": "Practitioner/4e1c92b7-ce38-4fd1-a43d-762fee986823"
      },
      "priority": {
        "coding": [ {
          "system": "http://terminology.hl7.org/CodeSystem/processpriority",
          "code": "normal"
        } ]
      },
      "diagnosis": [ {
        "sequence": 1,
        "diagnosisCodeableConcept": {
          "coding": [ {
            "system": "http://hl7.org/fhir/sid/icd-10-cm",
            "code": "I63.00"
          } ]
        },
        "type": [ {
          "coding": [ {
            "system": "http://terminology.hl7.org/CodeSystem/ex-diagnosistype",
            "code": "principal"
          } ]
        } ]
      } ],
      "insurance": [ {
        "sequence": 1,
        "focal": true,
        "coverage": {
          "reference": "Coverage/5fa041661c76ba66d9959367"
        }
      } ],
      "item": [ {
        "sequence": 1,
        "diagnosisSequence": [ 1 ],
        "productOrService": {
          "coding": [ {
            "system": "http://terminology.hl7.org/CodeSystem/ex-USCLS",
            "code": "99555"
          } ]
        },
        "encounter": [ {
          "reference": "Encounter/c6ab2288-0551-42aa-93da-43ab62b29f99"
        } ]
      } ]
    },
    "request": {
      "method": "PUT",
      "url": "Claim/29a934da-7418-4470-bb24-d8f9d4f8afe4"
    }
  }, {
    "fullUrl": "https://madie.cms.gov/Organization/f813eec7-26e0-4885-b5ca-bc110dff12be",
    "resource": {
      "resourceType": "Organization",
      "id": "f813eec7-26e0-4885-b5ca-bc110dff12be",
      "meta": {
        "profile": [ "http://hl7.org/fhir/us/qicore/StructureDefinition/qicore-organization" ]
      },
      "identifier": [ {
        "use": "temp",
        "system": "urn:oid:2.16.840.1.113883.4.4",
        "value": "21-3259825"
      } ],
      "active": true,
      "type": [ {
        "coding": [ {
          "system": "http://terminology.hl7.org/CodeSystem/organization-type",
          "code": "pay",
          "display": "Payer"
        } ]
      } ],
      "name": "Blue Cross Blue Shield of Texas",
      "telecom": [ {
        "system": "phone",
        "value": "(+1) 972-766-6900"
      } ],
      "address": [ {
        "use": "billing",
        "type": "postal",
        "line": [ "P.O. Box 660044" ],
        "city": "Dallas",
        "state": "TX",
        "postalCode": "75266-0044",
        "country": "USA"
      } ]
    },
    "request": {
      "method": "PUT",
      "url": "Organization/f813eec7-26e0-4885-b5ca-bc110dff12be"
    }
  }, {
    "fullUrl": "https://madie.cms.gov/Practitioner/4e1c92b7-ce38-4fd1-a43d-762fee986823",
    "resource": {
      "resourceType": "Practitioner",
      "id": "4e1c92b7-ce38-4fd1-a43d-762fee986823",
      "meta": {
        "profile": [ "http://hl7.org/fhir/us/qicore/StructureDefinition/qicore-practitioner" ]
      },
      "identifier": [ {
        "system": "http://hl7.org/fhir/sid/us-npi",
        "value": "9999999896"
      } ],
      "name": [ {
        "family": "Evil",
        "prefix": [ "Dr" ]
      } ]
    },
    "request": {
      "method": "PUT",
      "url": "Practitioner/4e1c92b7-ce38-4fd1-a43d-762fee986823"
    }
  }, {
    "fullUrl": "https://madie.cms.gov/MeasureReport/5f766d31-1fe0-479c-af60-28f6294078f4",
    "resource": {
      "resourceType": "MeasureReport",
      "id": "5f766d31-1fe0-479c-af60-28f6294078f4",
      "meta": {
        "profile": [ "http://hl7.org/fhir/us/cqfmeasures/StructureDefinition/test-case-cqfm" ]
      },
      "contained": [ {
        "resourceType": "Parameters",
        "id": "116e9f86-c6f6-462f-a01b-d2b65f1ee5c6-parameters",
        "parameter": [ {
          "name": "subject",
          "valueString": "a998e27f-e0a9-475d-80e8-0e9344591294"
        } ]
      } ],
      "extension": [ {
        "url": "http://hl7.org/fhir/StructureDefinition/cqf-inputParameters",
        "valueReference": {
          "reference": "#116e9f86-c6f6-462f-a01b-d2b65f1ee5c6-parameters"
        }
      }, {
        "url": "http://hl7.org/fhir/us/cqfmeasures/StructureDefinition/cqfm-testCaseDescription",
        "valueMarkdown": "Testing false donotperform CMO "
      } ],
      "modifierExtension": [ {
        "url": "http://hl7.org/fhir/us/cqfmeasures/StructureDefinition/cqfm-isTestCase",
        "valueBoolean": true
      } ],
      "status": "complete",
      "type": "individual",
      "measure": "https://madie.cms.gov/Measure/CMS71FHIRSTKAnticoagAFFlutter",
      "period": {
        "start": "2026-01-01",
        "end": "2026-12-31"
      },
      "group": [ {
        "id": "Group_1",
        "population": [ {
          "id": "InitialPopulation_1",
          "code": {
            "coding": [ {
              "system": "http://terminology.hl7.org/CodeSystem/measure-population",
              "code": "initial-population",
              "display": "Initial Population"
            } ]
          },
          "count": 1
        }, {
          "id": "Denominator_1",
          "code": {
            "coding": [ {
              "system": "http://terminology.hl7.org/CodeSystem/measure-population",
              "code": "denominator",
              "display": "Denominator"
            } ]
          },
          "count": 1
        }, {
          "id": "DenominatorExclusion_1",
          "code": {
            "coding": [ {
              "system": "http://terminology.hl7.org/CodeSystem/measure-population",
              "code": "denominator-exclusion",
              "display": "Denominator Exclusion"
            } ]
          },
          "count": 1
        }, {
          "id": "Numerator_1",
          "code": {
            "coding": [ {
              "system": "http://terminology.hl7.org/CodeSystem/measure-population",
              "code": "numerator",
              "display": "Numerator"
            } ]
          },
          "count": 0
        }, {
          "id": "DenominatorException_1",
          "code": {
            "coding": [ {
              "system": "http://terminology.hl7.org/CodeSystem/measure-population",
              "code": "denominator-exception",
              "display": "Denominator Exception"
            } ]
          },
          "count": 0
        } ],
        "measureScore": {
          "value": 0.0
        }
      } ],
      "evaluatedResource": [ {
        "reference": "Patient/a998e27f-e0a9-475d-80e8-0e9344591294"
      }, {
        "reference": "Condition/9f9f9936-0877-485a-90f7-829e06b7da69"
      }, {
        "reference": "Encounter/f581db9a-333d-48b0-ade9-8fa080ffab59"
      }, {
        "reference": "Encounter/c6ab2288-0551-42aa-93da-43ab62b29f99"
      }, {
        "reference": "ServiceRequest/9fb0a215-7b03-4493-bf74-2a1a097c374f"
      }, {
        "reference": "Coverage/4dca8a5d-e7c4-4fa8-b438-dbaa368c3339"
      }, {
        "reference": "Condition/e0549d64-58cc-4b81-bfb9-229d386e442b"
      }, {
        "reference": "Claim/29a934da-7418-4470-bb24-d8f9d4f8afe4"
      }, {
        "reference": "Organization/f813eec7-26e0-4885-b5ca-bc110dff12be"
      }, {
        "reference": "Practitioner/4e1c92b7-ce38-4fd1-a43d-762fee986823"
      } ]
    },
    "request": {
      "method": "PUT",
      "url": "MeasureReport/5f766d31-1fe0-479c-af60-28f6294078f4"
    }
  } ]
}