{
  "resourceType": "Bundle",
  "id": "633c9d040968f8012250fc9e",
  "type": "transaction",
  "entry": [ {
    "fullUrl": "https://madie.cms.gov/Patient/e20b4e76-8523-43ab-abc2-a4f4137a84bb",
    "resource": {
      "resourceType": "Patient",
      "id": "e20b4e76-8523-43ab-abc2-a4f4137a84bb",
      "meta": {
        "profile": [ "http://hl7.org/fhir/us/qicore/StructureDefinition/qicore-patient" ]
      },
      "text": {
        "status": "generated",
        "div": "<div xmlns=\"http://www.w3.org/1999/xhtml\"><div class=\"hapiHeaderText\">MedRsnStartTmEQEncAdmTm <b>DENEXCEPPASS </b></div><table class=\"hapiPropertyTable\"><tbody><tr><td>Identifier</td><td>35cbbf7aaaa0d68e43732015209d5ef8</td></tr><tr><td>Date of birth</td><td><span>23 May 1954</span></td></tr></tbody></table></div>"
      },
      "extension": [ {
        "url": "http://hl7.org/fhir/us/core/StructureDefinition/us-core-race",
        "extension": [ {
          "url": "ombCategory",
          "valueCoding": {
            "system": "urn:oid:2.16.840.1.113883.6.238",
            "code": "1002-5",
            "display": "American Indian or Alaska Native",
            "userSelected": true
          }
        }, {
          "url": "text",
          "valueString": "American Indian or Alaska Native"
        } ]
      }, {
        "url": "http://hl7.org/fhir/us/core/StructureDefinition/us-core-ethnicity",
        "extension": [ {
          "url": "ombCategory",
          "valueCoding": {
            "system": "urn:oid:2.16.840.1.113883.6.238",
            "code": "2135-2",
            "display": "Hispanic or Latino",
            "userSelected": true
          }
        }, {
          "url": "text",
          "valueString": "Hispanic or Latino"
        } ]
      } ],
      "identifier": [ {
        "type": {
          "coding": [ {
            "system": "http://terminology.hl7.org/CodeSystem/v2-0203",
            "code": "MR"
          } ]
        },
        "system": "https://bonnie-fhir.healthit.gov/",
        "value": "633c9d040968f8012250fc9e"
      } ],
      "active": true,
      "name": [ {
        "use": "usual",
        "family": "DENEXCEPPass",
        "given": [ "MedRsnStartTmEQEncAdmTm" ]
      } ],
      "gender": "female",
      "birthDate": "1955-05-23"
    },
    "request": {
      "method": "PUT",
      "url": "Patient/e20b4e76-8523-43ab-abc2-a4f4137a84bb"
    }
  }, {
    "fullUrl": "https://madie.cms.gov/Encounter/8dda5b14-7298-47f7-b31e-3d9fb183e1fc",
    "resource": {
      "resourceType": "Encounter",
      "id": "8dda5b14-7298-47f7-b31e-3d9fb183e1fc",
      "meta": {
        "profile": [ "http://hl7.org/fhir/us/qicore/StructureDefinition/qicore-encounter" ]
      },
      "status": "finished",
      "class": {
        "system": "http://terminology.hl7.org/CodeSystem/v3-ActCode",
        "code": "IMP",
        "display": "inpatient encounter"
      },
      "type": [ {
        "coding": [ {
          "system": "http://snomed.info/sct",
          "code": "32485007"
        } ]
      } ],
      "subject": {
        "reference": "Patient/e20b4e76-8523-43ab-abc2-a4f4137a84bb"
      },
      "period": {
        "start": "2026-11-20T07:16:00.000Z",
        "end": "2026-11-24T08:15:00.000Z"
      },
      "length": {
        "value": 4,
        "unit": "days"
      },
      "reasonReference": [ {
        "reference": "Condition/ac3ae9b8-23de-4969-876a-e2863d071dcf"
      } ]
    },
    "request": {
      "method": "PUT",
      "url": "Encounter/8dda5b14-7298-47f7-b31e-3d9fb183e1fc"
    }
  }, {
    "fullUrl": "https://madie.cms.gov/MedicationRequest/0d9325a0-5e3b-433e-a3b7-667a1a8c4582",
    "resource": {
      "resourceType": "MedicationRequest",
      "id": "0d9325a0-5e3b-433e-a3b7-667a1a8c4582",
      "meta": {
        "profile": [ "http://hl7.org/fhir/us/qicore/StructureDefinition/qicore-medicationnotrequested" ]
      },
      "status": "completed",
      "intent": "order",
      "category": [ {
        "coding": [ {
          "system": "http://terminology.hl7.org/CodeSystem/medicationrequest-category",
          "code": "community"
        } ]
      } ],
      "doNotPerform": true,
      "medicationCodeableConcept": {
        "coding": [ {
          "system": "http://www.nlm.nih.gov/research/umls/rxnorm",
          "code": "1037045"
        } ]
      },
      "subject": {
        "reference": "Patient/e20b4e76-8523-43ab-abc2-a4f4137a84bb"
      },
      "authoredOn": "2026-11-20T07:16:00.000Z",
      "requester": {
        "reference": "Practitioner/example"
      },
      "reasonCode": [ {
        "coding": [ {
          "system": "http://snomed.info/sct",
          "code": "183932001"
        } ]
      } ]
    },
    "request": {
      "method": "PUT",
      "url": "MedicationRequest/0d9325a0-5e3b-433e-a3b7-667a1a8c4582"
    }
  }, {
    "fullUrl": "https://madie.cms.gov/Task/6e0deca5-83c3-4109-8d29-5b82f536b1cf",
    "resource": {
      "resourceType": "Task",
      "id": "6e0deca5-83c3-4109-8d29-5b82f536b1cf",
      "meta": {
        "profile": [ "http://hl7.org/fhir/us/qicore/StructureDefinition/qicore-taskrejected" ]
      },
      "status": "rejected",
      "statusReason": {
        "coding": [ {
          "system": "http://snomed.info/sct",
          "code": "183932001",
          "userSelected": true
        } ]
      },
      "intent": "order",
      "code": {
        "coding": [ {
          "system": "http://hl7.org/fhir/CodeSystem/task-code",
          "code": "fulfill"
        } ]
      },
      "focus": {
        "reference": "MedicationRequest/0d9325a0-5e3b-433e-a3b7-667a1a8c4582"
      },
      "executionPeriod": {
        "start": "2026-11-20T07:16:00.000Z",
        "end": "2026-11-24T08:15:00.000Z"
      }
    },
    "request": {
      "method": "PUT",
      "url": "Task/6e0deca5-83c3-4109-8d29-5b82f536b1cf"
    }
  }, {
    "fullUrl": "https://madie.cms.gov/Claim/7ab07c60-7ada-446d-bbde-b14a269ddbe6",
    "resource": {
      "resourceType": "Claim",
      "id": "7ab07c60-7ada-446d-bbde-b14a269ddbe6",
      "meta": {
        "profile": [ "http://hl7.org/fhir/us/qicore/StructureDefinition/qicore-claim" ]
      },
      "status": "active",
      "type": {
        "coding": [ {
          "system": "http://terminology.hl7.org/CodeSystem/claim-type",
          "code": "institutional"
        } ]
      },
      "use": "claim",
      "patient": {
        "reference": "Patient/e20b4e76-8523-43ab-abc2-a4f4137a84bb"
      },
      "created": "2026-12-01",
      "provider": {
        "reference": "Practitioner/practitioner-123456"
      },
      "priority": {
        "coding": [ {
          "system": "http://terminology.hl7.org/CodeSystem/processpriority",
          "code": "normal"
        } ]
      },
      "diagnosis": [ {
        "sequence": 1,
        "diagnosisCodeableConcept": {
          "coding": [ {
            "system": "http://hl7.org/fhir/sid/icd-10-cm",
            "code": "I63.00"
          } ]
        },
        "type": [ {
          "coding": [ {
            "system": "http://terminology.hl7.org/CodeSystem/ex-diagnosistype",
            "code": "principal"
          } ]
        } ]
      } ],
      "insurance": [ {
        "sequence": 1,
        "focal": true,
        "coverage": {
          "reference": "Coverage/5fa041661c76ba66d9959367"
        }
      } ],
      "item": [ {
        "sequence": 1,
        "diagnosisSequence": [ 1 ],
        "productOrService": {
          "coding": [ {
            "system": "http://terminology.hl7.org/CodeSystem/ex-USCLS",
            "code": "99555"
          } ]
        },
        "encounter": [ {
          "reference": "Encounter/8dda5b14-7298-47f7-b31e-3d9fb183e1fc"
        } ]
      } ]
    },
    "request": {
      "method": "PUT",
      "url": "Claim/7ab07c60-7ada-446d-bbde-b14a269ddbe6"
    }
  }, {
    "fullUrl": "https://madie.cms.gov/Coverage/666401a4-7809-45eb-9914-260e09308f81",
    "resource": {
      "resourceType": "Coverage",
      "id": "666401a4-7809-45eb-9914-260e09308f81",
      "meta": {
        "profile": [ "http://hl7.org/fhir/us/qicore/StructureDefinition/qicore-coverage" ]
      },
      "status": "active",
      "subscriberId": "523435",
      "beneficiary": {
        "reference": "Patient/e20b4e76-8523-43ab-abc2-a4f4137a84bb"
      },
      "relationship": {
        "coding": [ {
          "system": "http://terminology.hl7.org/CodeSystem/subscriber-relationship",
          "code": "self"
        } ]
      },
      "payor": [ {
        "reference": "Organization/4b33d496-7b24-4bab-8d0a-4c7bbcc38a96"
      } ]
    },
    "request": {
      "method": "PUT",
      "url": "Coverage/666401a4-7809-45eb-9914-260e09308f81"
    }
  }, {
    "fullUrl": "https://madie.cms.gov/Procedure/0e89febf-228d-4ff7-901b-7ec519cf9748",
    "resource": {
      "resourceType": "Procedure",
      "id": "0e89febf-228d-4ff7-901b-7ec519cf9748",
      "meta": {
        "profile": [ "http://hl7.org/fhir/us/qicore/StructureDefinition/qicore-procedure" ]
      },
      "extension": [ {
        "url": "http://hl7.org/fhir/us/qicore/StructureDefinition/qicore-recorded",
        "valueDateTime": "2014-04-05T13:35:00.000Z"
      } ],
      "status": "completed",
      "code": {
        "coding": [ {
          "system": "http://www.cms.gov/Medicare/Coding/ICD10",
          "code": "02560ZZ"
        }, {
          "system": "http://snomed.info/sct",
          "code": "175095005"
        } ]
      },
      "subject": {
        "reference": "Patient/e20b4e76-8523-43ab-abc2-a4f4137a84bb"
      },
      "performedPeriod": {
        "start": "2026-11-20T07:15:00.000Z",
        "end": "2026-11-20T07:16:00.000Z"
      }
    },
    "request": {
      "method": "PUT",
      "url": "Procedure/0e89febf-228d-4ff7-901b-7ec519cf9748"
    }
  }, {
    "fullUrl": "https://madie.cms.gov/Condition/ac3ae9b8-23de-4969-876a-e2863d071dcf",
    "resource": {
      "resourceType": "Condition",
      "id": "ac3ae9b8-23de-4969-876a-e2863d071dcf",
      "meta": {
        "profile": [ "http://hl7.org/fhir/us/qicore/StructureDefinition/qicore-condition-encounter-diagnosis" ]
      },
      "clinicalStatus": {
        "coding": [ {
          "system": "http://terminology.hl7.org/CodeSystem/condition-clinical",
          "code": "active"
        } ]
      },
      "verificationStatus": {
        "coding": [ {
          "system": "http://terminology.hl7.org/CodeSystem/condition-ver-status",
          "code": "confirmed"
        } ]
      },
      "category": [ {
        "coding": [ {
          "system": "http://terminology.hl7.org/CodeSystem/condition-category",
          "code": "encounter-diagnosis",
          "display": "Encounter Diagnosis"
        } ]
      } ],
      "code": {
        "coding": [ {
          "system": "http://snomed.info/sct",
          "version": "2021-09",
          "code": "111297002",
          "display": "Nonparalytic stroke (disorder)",
          "userSelected": true
        } ]
      },
      "subject": {
        "reference": "Patient/e20b4e76-8523-43ab-abc2-a4f4137a84bb"
      },
      "recordedDate": "2026-10-13T08:00:00.000Z"
    },
    "request": {
      "method": "PUT",
      "url": "Condition/ac3ae9b8-23de-4969-876a-e2863d071dcf"
    }
  }, {
    "fullUrl": "https://madie.cms.gov/Organization/4b33d496-7b24-4bab-8d0a-4c7bbcc38a96",
    "resource": {
      "resourceType": "Organization",
      "id": "4b33d496-7b24-4bab-8d0a-4c7bbcc38a96",
      "meta": {
        "profile": [ "http://hl7.org/fhir/us/qicore/StructureDefinition/qicore-organization" ]
      },
      "identifier": [ {
        "use": "temp",
        "system": "urn:oid:2.16.840.1.113883.4.4",
        "value": "21-3259825"
      } ],
      "active": true,
      "type": [ {
        "coding": [ {
          "system": "http://terminology.hl7.org/CodeSystem/organization-type",
          "code": "pay",
          "display": "Payer"
        } ]
      } ],
      "name": "Blue Cross Blue Shield of Texas",
      "telecom": [ {
        "system": "phone",
        "value": "(+1) 972-766-6900"
      } ],
      "address": [ {
        "use": "billing",
        "type": "postal",
        "line": [ "P.O. Box 660044" ],
        "city": "Dallas",
        "state": "TX",
        "postalCode": "75266-0044",
        "country": "USA"
      } ]
    },
    "request": {
      "method": "PUT",
      "url": "Organization/4b33d496-7b24-4bab-8d0a-4c7bbcc38a96"
    }
  }, {
    "fullUrl": "https://madie.cms.gov/MeasureReport/ce8fcdb9-f3ff-4f3f-a6cc-114d96185bcb",
    "resource": {
      "resourceType": "MeasureReport",
      "id": "ce8fcdb9-f3ff-4f3f-a6cc-114d96185bcb",
      "meta": {
        "profile": [ "http://hl7.org/fhir/us/cqfmeasures/StructureDefinition/test-case-cqfm" ]
      },
      "contained": [ {
        "resourceType": "Parameters",
        "id": "0c046368-4c9f-4ba7-bb0c-077c874fd9e3-parameters",
        "parameter": [ {
          "name": "subject",
          "valueString": "e20b4e76-8523-43ab-abc2-a4f4137a84bb"
        } ]
      } ],
      "extension": [ {
        "url": "http://hl7.org/fhir/StructureDefinition/cqf-inputParameters",
        "valueReference": {
          "reference": "#0c046368-4c9f-4ba7-bb0c-077c874fd9e3-parameters"
        }
      }, {
        "url": "http://hl7.org/fhir/us/cqfmeasures/StructureDefinition/cqfm-testCaseDescription",
        "valueMarkdown": "Patient did not receive anticoagulant on dc due to medical reason, but start date is eq start of OccurA\n"
      } ],
      "modifierExtension": [ {
        "url": "http://hl7.org/fhir/us/cqfmeasures/StructureDefinition/cqfm-isTestCase",
        "valueBoolean": true
      } ],
      "status": "complete",
      "type": "individual",
      "measure": "https://madie.cms.gov/Measure/CMS71FHIRSTKAnticoagAFFlutter",
      "period": {
        "start": "2026-01-01",
        "end": "2026-12-31"
      },
      "group": [ {
        "id": "Group_1",
        "population": [ {
          "id": "InitialPopulation_1",
          "code": {
            "coding": [ {
              "system": "http://terminology.hl7.org/CodeSystem/measure-population",
              "code": "initial-population",
              "display": "Initial Population"
            } ]
          },
          "count": 1
        }, {
          "id": "Denominator_1",
          "code": {
            "coding": [ {
              "system": "http://terminology.hl7.org/CodeSystem/measure-population",
              "code": "denominator",
              "display": "Denominator"
            } ]
          },
          "count": 1
        }, {
          "id": "DenominatorExclusion_1",
          "code": {
            "coding": [ {
              "system": "http://terminology.hl7.org/CodeSystem/measure-population",
              "code": "denominator-exclusion",
              "display": "Denominator Exclusion"
            } ]
          },
          "count": 0
        }, {
          "id": "Numerator_1",
          "code": {
            "coding": [ {
              "system": "http://terminology.hl7.org/CodeSystem/measure-population",
              "code": "numerator",
              "display": "Numerator"
            } ]
          },
          "count": 0
        }, {
          "id": "DenominatorException_1",
          "code": {
            "coding": [ {
              "system": "http://terminology.hl7.org/CodeSystem/measure-population",
              "code": "denominator-exception",
              "display": "Denominator Exception"
            } ]
          },
          "count": 1
        } ],
        "measureScore": {
          "value": 0.0
        }
      } ],
      "evaluatedResource": [ {
        "reference": "Patient/e20b4e76-8523-43ab-abc2-a4f4137a84bb"
      }, {
        "reference": "Encounter/8dda5b14-7298-47f7-b31e-3d9fb183e1fc"
      }, {
        "reference": "MedicationRequest/0d9325a0-5e3b-433e-a3b7-667a1a8c4582"
      }, {
        "reference": "Task/6e0deca5-83c3-4109-8d29-5b82f536b1cf"
      }, {
        "reference": "Claim/7ab07c60-7ada-446d-bbde-b14a269ddbe6"
      }, {
        "reference": "Coverage/666401a4-7809-45eb-9914-260e09308f81"
      }, {
        "reference": "Procedure/0e89febf-228d-4ff7-901b-7ec519cf9748"
      }, {
        "reference": "Condition/ac3ae9b8-23de-4969-876a-e2863d071dcf"
      }, {
        "reference": "Organization/4b33d496-7b24-4bab-8d0a-4c7bbcc38a96"
      } ]
    },
    "request": {
      "method": "PUT",
      "url": "MeasureReport/ce8fcdb9-f3ff-4f3f-a6cc-114d96185bcb"
    }
  } ]
}