{
  "resourceType": "Bundle",
  "id": "633c9d040968f8012250fcb2",
  "type": "transaction",
  "entry": [ {
    "fullUrl": "https://madie.cms.gov/Patient/e695d66d-1f4e-4b69-acad-0861f1222d44",
    "resource": {
      "resourceType": "Patient",
      "id": "e695d66d-1f4e-4b69-acad-0861f1222d44",
      "meta": {
        "profile": [ "http://hl7.org/fhir/us/qicore/StructureDefinition/qicore-patient" ]
      },
      "text": {
        "status": "generated",
        "div": "<div xmlns=\"http://www.w3.org/1999/xhtml\"><div class=\"hapiHeaderText\">ProcAtrialAblB4EncDateTime <b>DENOMPASS </b></div><table class=\"hapiPropertyTable\"><tbody><tr><td>Identifier</td><td>1ebc7a8ec0c65913b7018969c7b50ead</td></tr><tr><td>Date of birth</td><td><span>01 December 1960</span></td></tr></tbody></table></div>"
      },
      "extension": [ {
        "url": "http://hl7.org/fhir/us/core/StructureDefinition/us-core-race",
        "extension": [ {
          "url": "ombCategory",
          "valueCoding": {
            "system": "urn:oid:2.16.840.1.113883.6.238",
            "code": "1002-5",
            "display": "American Indian or Alaska Native",
            "userSelected": true
          }
        }, {
          "url": "text",
          "valueString": "American Indian or Alaska Native"
        } ]
      }, {
        "url": "http://hl7.org/fhir/us/core/StructureDefinition/us-core-ethnicity",
        "extension": [ {
          "url": "ombCategory",
          "valueCoding": {
            "system": "urn:oid:2.16.840.1.113883.6.238",
            "code": "2135-2",
            "display": "Hispanic or Latino",
            "userSelected": true
          }
        }, {
          "url": "text",
          "valueString": "Hispanic or Latino"
        } ]
      } ],
      "identifier": [ {
        "type": {
          "coding": [ {
            "system": "http://terminology.hl7.org/CodeSystem/v2-0203",
            "code": "MR"
          } ]
        },
        "system": "https://bonnie-fhir.healthit.gov/",
        "value": "633c9d040968f8012250fcb2"
      } ],
      "active": true,
      "name": [ {
        "use": "usual",
        "family": "DENOMPass",
        "given": [ "ProcAtrialAblB4EncDateTime" ]
      } ],
      "gender": "male",
      "birthDate": "1961-12-01"
    },
    "request": {
      "method": "PUT",
      "url": "Patient/e695d66d-1f4e-4b69-acad-0861f1222d44"
    }
  }, {
    "fullUrl": "https://madie.cms.gov/Encounter/5abc6854-2bd2-462d-be64-6be49e9517e9",
    "resource": {
      "resourceType": "Encounter",
      "id": "5abc6854-2bd2-462d-be64-6be49e9517e9",
      "meta": {
        "profile": [ "http://hl7.org/fhir/us/qicore/StructureDefinition/qicore-encounter" ]
      },
      "status": "finished",
      "class": {
        "system": "http://terminology.hl7.org/CodeSystem/v3-ActCode",
        "code": "IMP",
        "display": "inpatient encounter"
      },
      "type": [ {
        "coding": [ {
          "system": "http://snomed.info/sct",
          "code": "32485007"
        } ]
      } ],
      "subject": {
        "reference": "Patient/e695d66d-1f4e-4b69-acad-0861f1222d44"
      },
      "period": {
        "start": "2026-02-08T08:00:00.000Z",
        "end": "2026-02-10T08:15:00.000Z"
      },
      "length": {
        "value": 2,
        "unit": "days"
      }
    },
    "request": {
      "method": "PUT",
      "url": "Encounter/5abc6854-2bd2-462d-be64-6be49e9517e9"
    }
  }, {
    "fullUrl": "https://madie.cms.gov/Claim/2e28fa7c-298b-4a9e-b5d7-16f327f3c80f",
    "resource": {
      "resourceType": "Claim",
      "id": "2e28fa7c-298b-4a9e-b5d7-16f327f3c80f",
      "meta": {
        "profile": [ "http://hl7.org/fhir/us/qicore/StructureDefinition/qicore-claim" ]
      },
      "status": "active",
      "type": {
        "coding": [ {
          "system": "http://terminology.hl7.org/CodeSystem/claim-type",
          "code": "institutional"
        } ]
      },
      "use": "claim",
      "patient": {
        "reference": "Patient/e695d66d-1f4e-4b69-acad-0861f1222d44"
      },
      "created": "2026-12-01",
      "provider": {
        "reference": "Practitioner/5d6272a8-f68e-4c5d-af71-6183ac52230a"
      },
      "priority": {
        "coding": [ {
          "system": "http://terminology.hl7.org/CodeSystem/processpriority",
          "code": "normal"
        } ]
      },
      "diagnosis": [ {
        "sequence": 1,
        "diagnosisCodeableConcept": {
          "coding": [ {
            "system": "http://hl7.org/fhir/sid/icd-10-cm",
            "code": "I63.00"
          } ]
        },
        "type": [ {
          "coding": [ {
            "system": "http://terminology.hl7.org/CodeSystem/ex-diagnosistype",
            "code": "principal"
          } ]
        } ]
      } ],
      "insurance": [ {
        "sequence": 1,
        "focal": true,
        "coverage": {
          "reference": "Coverage/5fa041661c76ba66d9959367"
        }
      } ],
      "item": [ {
        "sequence": 1,
        "diagnosisSequence": [ 1 ],
        "productOrService": {
          "coding": [ {
            "system": "http://terminology.hl7.org/CodeSystem/ex-USCLS",
            "code": "99555"
          } ]
        },
        "encounter": [ {
          "reference": "Encounter/5abc6854-2bd2-462d-be64-6be49e9517e9"
        } ]
      } ]
    },
    "request": {
      "method": "PUT",
      "url": "Claim/2e28fa7c-298b-4a9e-b5d7-16f327f3c80f"
    }
  }, {
    "fullUrl": "https://madie.cms.gov/Coverage/fb0648a0-8c7f-4f51-b742-d1673880b991",
    "resource": {
      "resourceType": "Coverage",
      "id": "fb0648a0-8c7f-4f51-b742-d1673880b991",
      "meta": {
        "profile": [ "http://hl7.org/fhir/us/qicore/StructureDefinition/qicore-coverage" ]
      },
      "status": "active",
      "subscriberId": "523435",
      "beneficiary": {
        "reference": "Patient/e695d66d-1f4e-4b69-acad-0861f1222d44"
      },
      "relationship": {
        "coding": [ {
          "system": "http://terminology.hl7.org/CodeSystem/subscriber-relationship",
          "code": "self"
        } ]
      },
      "payor": [ {
        "reference": "Organization/4e01f838-55e3-4656-a581-857558d219ad"
      } ]
    },
    "request": {
      "method": "PUT",
      "url": "Coverage/fb0648a0-8c7f-4f51-b742-d1673880b991"
    }
  }, {
    "fullUrl": "https://madie.cms.gov/Procedure/27ef839a-b60f-465a-90d9-b1f7f8080f19",
    "resource": {
      "resourceType": "Procedure",
      "id": "27ef839a-b60f-465a-90d9-b1f7f8080f19",
      "meta": {
        "profile": [ "http://hl7.org/fhir/us/qicore/StructureDefinition/qicore-procedure" ]
      },
      "extension": [ {
        "url": "http://hl7.org/fhir/us/qicore/StructureDefinition/qicore-recorded",
        "valueDateTime": "2026-11-19T13:35:00.000Z"
      } ],
      "status": "completed",
      "code": {
        "coding": [ {
          "system": "http://www.cms.gov/Medicare/Coding/ICD10",
          "code": "02560ZZ"
        }, {
          "system": "http://snomed.info/sct",
          "code": "175095005"
        } ]
      },
      "subject": {
        "reference": "Patient/e695d66d-1f4e-4b69-acad-0861f1222d44"
      },
      "performedDateTime": "2026-02-08T07:59:00.000Z"
    },
    "request": {
      "method": "PUT",
      "url": "Procedure/27ef839a-b60f-465a-90d9-b1f7f8080f19"
    }
  }, {
    "fullUrl": "https://madie.cms.gov/Condition/0693793f-7a56-4dac-ac74-9813b7d5e911",
    "resource": {
      "resourceType": "Condition",
      "id": "0693793f-7a56-4dac-ac74-9813b7d5e911",
      "meta": {
        "profile": [ "http://hl7.org/fhir/us/qicore/StructureDefinition/qicore-condition-encounter-diagnosis" ]
      },
      "clinicalStatus": {
        "coding": [ {
          "system": "http://terminology.hl7.org/CodeSystem/condition-clinical",
          "code": "active"
        } ]
      },
      "verificationStatus": {
        "coding": [ {
          "system": "http://terminology.hl7.org/CodeSystem/condition-ver-status",
          "code": "confirmed"
        } ]
      },
      "category": [ {
        "coding": [ {
          "system": "http://terminology.hl7.org/CodeSystem/condition-category",
          "code": "encounter-diagnosis",
          "display": "Encounter Diagnosis"
        } ]
      } ],
      "code": {
        "coding": [ {
          "system": "http://snomed.info/sct",
          "version": "2021-09",
          "code": "111297002",
          "display": "Nonparalytic stroke (disorder)",
          "userSelected": true
        } ]
      },
      "subject": {
        "reference": "Patient/e695d66d-1f4e-4b69-acad-0861f1222d44"
      },
      "recordedDate": "2026-10-13T08:00:00.000Z"
    },
    "request": {
      "method": "PUT",
      "url": "Condition/0693793f-7a56-4dac-ac74-9813b7d5e911"
    }
  }, {
    "fullUrl": "https://madie.cms.gov/Organization/4e01f838-55e3-4656-a581-857558d219ad",
    "resource": {
      "resourceType": "Organization",
      "id": "4e01f838-55e3-4656-a581-857558d219ad",
      "meta": {
        "profile": [ "http://hl7.org/fhir/us/qicore/StructureDefinition/qicore-organization" ]
      },
      "identifier": [ {
        "use": "temp",
        "system": "urn:oid:2.16.840.1.113883.4.4",
        "value": "21-3259825"
      } ],
      "active": true,
      "type": [ {
        "coding": [ {
          "system": "http://terminology.hl7.org/CodeSystem/organization-type",
          "code": "pay",
          "display": "Payer"
        } ]
      } ],
      "name": "Blue Cross Blue Shield of Texas",
      "telecom": [ {
        "system": "phone",
        "value": "(+1) 972-766-6900"
      } ],
      "address": [ {
        "use": "billing",
        "type": "postal",
        "line": [ "P.O. Box 660044" ],
        "city": "Dallas",
        "state": "TX",
        "postalCode": "75266-0044",
        "country": "USA"
      } ]
    },
    "request": {
      "method": "PUT",
      "url": "Organization/4e01f838-55e3-4656-a581-857558d219ad"
    }
  }, {
    "fullUrl": "https://madie.cms.gov/Practitioner/5d6272a8-f68e-4c5d-af71-6183ac52230a",
    "resource": {
      "resourceType": "Practitioner",
      "id": "5d6272a8-f68e-4c5d-af71-6183ac52230a",
      "meta": {
        "profile": [ "http://hl7.org/fhir/us/qicore/StructureDefinition/qicore-practitioner" ]
      },
      "identifier": [ {
        "system": "http://hl7.org/fhir/sid/us-npi",
        "value": "9999999896"
      } ],
      "name": [ {
        "family": "Evil",
        "prefix": [ "Dr" ]
      } ]
    },
    "request": {
      "method": "PUT",
      "url": "Practitioner/5d6272a8-f68e-4c5d-af71-6183ac52230a"
    }
  }, {
    "fullUrl": "https://madie.cms.gov/MeasureReport/191dae37-6e31-4d9c-bc06-0d250384c9a1",
    "resource": {
      "resourceType": "MeasureReport",
      "id": "191dae37-6e31-4d9c-bc06-0d250384c9a1",
      "meta": {
        "profile": [ "http://hl7.org/fhir/us/cqfmeasures/StructureDefinition/test-case-cqfm" ]
      },
      "contained": [ {
        "resourceType": "Parameters",
        "id": "3501b54a-4f6e-4e13-adb9-d596f5655047-parameters",
        "parameter": [ {
          "name": "subject",
          "valueString": "e695d66d-1f4e-4b69-acad-0861f1222d44"
        } ]
      } ],
      "extension": [ {
        "url": "http://hl7.org/fhir/StructureDefinition/cqf-inputParameters",
        "valueReference": {
          "reference": "#3501b54a-4f6e-4e13-adb9-d596f5655047-parameters"
        }
      }, {
        "url": "http://hl7.org/fhir/us/cqfmeasures/StructureDefinition/cqfm-testCaseDescription",
        "valueMarkdown": "Proc performed Atrial Ablation starts before start of OccA by 1 minutes\n"
      } ],
      "modifierExtension": [ {
        "url": "http://hl7.org/fhir/us/cqfmeasures/StructureDefinition/cqfm-isTestCase",
        "valueBoolean": true
      } ],
      "status": "complete",
      "type": "individual",
      "measure": "https://madie.cms.gov/Measure/CMS71FHIRSTKAnticoagAFFlutter",
      "period": {
        "start": "2026-01-01",
        "end": "2026-12-31"
      },
      "group": [ {
        "id": "Group_1",
        "population": [ {
          "id": "InitialPopulation_1",
          "code": {
            "coding": [ {
              "system": "http://terminology.hl7.org/CodeSystem/measure-population",
              "code": "initial-population",
              "display": "Initial Population"
            } ]
          },
          "count": 1
        }, {
          "id": "Denominator_1",
          "code": {
            "coding": [ {
              "system": "http://terminology.hl7.org/CodeSystem/measure-population",
              "code": "denominator",
              "display": "Denominator"
            } ]
          },
          "count": 1
        }, {
          "id": "DenominatorExclusion_1",
          "code": {
            "coding": [ {
              "system": "http://terminology.hl7.org/CodeSystem/measure-population",
              "code": "denominator-exclusion",
              "display": "Denominator Exclusion"
            } ]
          },
          "count": 0
        }, {
          "id": "Numerator_1",
          "code": {
            "coding": [ {
              "system": "http://terminology.hl7.org/CodeSystem/measure-population",
              "code": "numerator",
              "display": "Numerator"
            } ]
          },
          "count": 0
        }, {
          "id": "DenominatorException_1",
          "code": {
            "coding": [ {
              "system": "http://terminology.hl7.org/CodeSystem/measure-population",
              "code": "denominator-exception",
              "display": "Denominator Exception"
            } ]
          },
          "count": 0
        } ],
        "measureScore": {
          "value": 0.0
        }
      } ],
      "evaluatedResource": [ {
        "reference": "Patient/e695d66d-1f4e-4b69-acad-0861f1222d44"
      }, {
        "reference": "Encounter/5abc6854-2bd2-462d-be64-6be49e9517e9"
      }, {
        "reference": "Claim/2e28fa7c-298b-4a9e-b5d7-16f327f3c80f"
      }, {
        "reference": "Coverage/fb0648a0-8c7f-4f51-b742-d1673880b991"
      }, {
        "reference": "Procedure/27ef839a-b60f-465a-90d9-b1f7f8080f19"
      }, {
        "reference": "Condition/0693793f-7a56-4dac-ac74-9813b7d5e911"
      }, {
        "reference": "Organization/4e01f838-55e3-4656-a581-857558d219ad"
      }, {
        "reference": "Practitioner/5d6272a8-f68e-4c5d-af71-6183ac52230a"
      } ]
    },
    "request": {
      "method": "PUT",
      "url": "MeasureReport/191dae37-6e31-4d9c-bc06-0d250384c9a1"
    }
  } ]
}