{
  "resourceType": "Bundle",
  "id": "633c9d040968f8012250fca4",
  "type": "transaction",
  "entry": [ {
    "fullUrl": "https://madie.cms.gov/Patient/a8856231-e110-4811-ac95-3f65c3d440fa",
    "resource": {
      "resourceType": "Patient",
      "id": "a8856231-e110-4811-ac95-3f65c3d440fa",
      "meta": {
        "profile": [ "http://hl7.org/fhir/us/qicore/StructureDefinition/qicore-patient" ]
      },
      "text": {
        "status": "generated",
        "div": "<div xmlns=\"http://www.w3.org/1999/xhtml\"><div class=\"hapiHeaderText\">CMOdurED_ED&lt;1hrObs&lt;1hrBFEnc <b>DENEXPASS </b></div><table class=\"hapiPropertyTable\"><tbody><tr><td>Identifier</td><td>0b5c2e2db5c7f9518d6eb2bf44cd7df8817ff6b8521c862f9878d999f0ab28a2</td></tr><tr><td>Date of birth</td><td><span>18 September 1985</span></td></tr></tbody></table></div>"
      },
      "extension": [ {
        "url": "http://hl7.org/fhir/us/core/StructureDefinition/us-core-race",
        "extension": [ {
          "url": "ombCategory",
          "valueCoding": {
            "system": "urn:oid:2.16.840.1.113883.6.238",
            "code": "1002-5",
            "display": "American Indian or Alaska Native",
            "userSelected": true
          }
        }, {
          "url": "text",
          "valueString": "American Indian or Alaska Native"
        } ]
      }, {
        "url": "http://hl7.org/fhir/us/core/StructureDefinition/us-core-ethnicity",
        "extension": [ {
          "url": "ombCategory",
          "valueCoding": {
            "system": "urn:oid:2.16.840.1.113883.6.238",
            "code": "2135-2",
            "display": "Hispanic or Latino",
            "userSelected": true
          }
        }, {
          "url": "text",
          "valueString": "Hispanic or Latino"
        } ]
      } ],
      "identifier": [ {
        "type": {
          "coding": [ {
            "system": "http://terminology.hl7.org/CodeSystem/v2-0203",
            "code": "MR"
          } ]
        },
        "system": "https://bonnie-fhir.healthit.gov/",
        "value": "633c9d040968f8012250fca4"
      } ],
      "active": true,
      "name": [ {
        "use": "usual",
        "family": "DENEXPass",
        "given": [ "CMOdurED_ED<1hrObs<1hrBFEnc" ]
      } ],
      "gender": "female",
      "birthDate": "1986-09-18"
    },
    "request": {
      "method": "PUT",
      "url": "Patient/a8856231-e110-4811-ac95-3f65c3d440fa"
    }
  }, {
    "fullUrl": "https://madie.cms.gov/Condition/6a677fa4-432a-4783-bc0a-23f803776060",
    "resource": {
      "resourceType": "Condition",
      "id": "6a677fa4-432a-4783-bc0a-23f803776060",
      "meta": {
        "profile": [ "http://hl7.org/fhir/us/qicore/StructureDefinition/qicore-condition-problems-health-concerns" ]
      },
      "clinicalStatus": {
        "coding": [ {
          "system": "http://terminology.hl7.org/CodeSystem/condition-clinical",
          "code": "inactive"
        } ]
      },
      "verificationStatus": {
        "coding": [ {
          "system": "http://terminology.hl7.org/CodeSystem/condition-ver-status",
          "code": "confirmed"
        } ]
      },
      "category": [ {
        "coding": [ {
          "system": "http://terminology.hl7.org/CodeSystem/condition-category",
          "code": "problem-list-item"
        } ]
      } ],
      "code": {
        "coding": [ {
          "system": "http://hl7.org/fhir/sid/icd-10-cm",
          "code": "I48.20"
        }, {
          "system": "http://hl7.org/fhir/sid/icd-10-cm",
          "code": "I48.0"
        }, {
          "system": "http://snomed.info/sct",
          "code": "5370000"
        } ]
      },
      "subject": {
        "reference": "Patient/a8856231-e110-4811-ac95-3f65c3d440fa"
      },
      "onsetDateTime": "2026-10-01T09:00:00.000Z",
      "abatementDateTime": "2026-10-12T00:15:00.000Z"
    },
    "request": {
      "method": "PUT",
      "url": "Condition/6a677fa4-432a-4783-bc0a-23f803776060"
    }
  }, {
    "fullUrl": "https://madie.cms.gov/Encounter/ab7ef893-9d35-4223-aa10-44a96dadff69",
    "resource": {
      "resourceType": "Encounter",
      "id": "ab7ef893-9d35-4223-aa10-44a96dadff69",
      "meta": {
        "profile": [ "http://hl7.org/fhir/us/qicore/StructureDefinition/qicore-encounter" ]
      },
      "status": "finished",
      "class": {
        "system": "http://terminology.hl7.org/CodeSystem/v3-ActCode",
        "code": "EMER",
        "display": "emergency"
      },
      "type": [ {
        "coding": [ {
          "system": "http://snomed.info/sct",
          "code": "4525004"
        } ]
      } ],
      "subject": {
        "reference": "Patient/a8856231-e110-4811-ac95-3f65c3d440fa"
      },
      "period": {
        "start": "2026-09-30T07:59:00.000Z",
        "end": "2026-09-30T09:00:00.000Z"
      },
      "length": {
        "value": 0,
        "unit": "days"
      }
    },
    "request": {
      "method": "PUT",
      "url": "Encounter/ab7ef893-9d35-4223-aa10-44a96dadff69"
    }
  }, {
    "fullUrl": "https://madie.cms.gov/Encounter/4a6a6b24-aa14-4750-abd9-b25ba6fa32bb",
    "resource": {
      "resourceType": "Encounter",
      "id": "4a6a6b24-aa14-4750-abd9-b25ba6fa32bb",
      "meta": {
        "profile": [ "http://hl7.org/fhir/us/qicore/StructureDefinition/qicore-encounter" ]
      },
      "status": "finished",
      "class": {
        "system": "http://terminology.hl7.org/CodeSystem/v3-ActCode",
        "code": "OBSENC",
        "display": "observation encounter"
      },
      "type": [ {
        "coding": [ {
          "system": "http://snomed.info/sct",
          "code": "448851000124103"
        } ]
      } ],
      "subject": {
        "reference": "Patient/a8856231-e110-4811-ac95-3f65c3d440fa"
      },
      "period": {
        "start": "2026-09-30T09:01:00.000Z",
        "end": "2026-09-30T09:05:00.000Z"
      },
      "length": {
        "value": 0,
        "unit": "days"
      }
    },
    "request": {
      "method": "PUT",
      "url": "Encounter/4a6a6b24-aa14-4750-abd9-b25ba6fa32bb"
    }
  }, {
    "fullUrl": "https://madie.cms.gov/Encounter/2539a008-66ea-402a-a6d1-4f813a82cd3f",
    "resource": {
      "resourceType": "Encounter",
      "id": "2539a008-66ea-402a-a6d1-4f813a82cd3f",
      "meta": {
        "profile": [ "http://hl7.org/fhir/us/qicore/StructureDefinition/qicore-encounter" ]
      },
      "status": "finished",
      "class": {
        "system": "http://terminology.hl7.org/CodeSystem/v3-ActCode",
        "code": "IMP",
        "display": "inpatient encounter"
      },
      "type": [ {
        "coding": [ {
          "system": "http://snomed.info/sct",
          "code": "32485007"
        } ]
      } ],
      "subject": {
        "reference": "Patient/a8856231-e110-4811-ac95-3f65c3d440fa"
      },
      "period": {
        "start": "2026-09-30T09:06:00.000Z",
        "end": "2026-10-12T00:15:00.000Z"
      },
      "length": {
        "value": 12,
        "unit": "days"
      },
      "reasonReference": [ {
        "reference": "Condition/6a677fa4-432a-4783-bc0a-23f803776060"
      } ]
    },
    "request": {
      "method": "PUT",
      "url": "Encounter/2539a008-66ea-402a-a6d1-4f813a82cd3f"
    }
  }, {
    "fullUrl": "https://madie.cms.gov/Condition/25455a41-b39b-40ff-b5c8-64194ed2cdc5",
    "resource": {
      "resourceType": "Condition",
      "id": "25455a41-b39b-40ff-b5c8-64194ed2cdc5",
      "meta": {
        "profile": [ "http://hl7.org/fhir/us/qicore/StructureDefinition/qicore-condition-encounter-diagnosis" ]
      },
      "clinicalStatus": {
        "coding": [ {
          "system": "http://terminology.hl7.org/CodeSystem/condition-clinical",
          "code": "active"
        } ]
      },
      "verificationStatus": {
        "coding": [ {
          "system": "http://terminology.hl7.org/CodeSystem/condition-ver-status",
          "code": "confirmed"
        } ]
      },
      "category": [ {
        "coding": [ {
          "system": "http://terminology.hl7.org/CodeSystem/condition-category",
          "code": "encounter-diagnosis",
          "display": "Encounter Diagnosis"
        } ]
      } ],
      "code": {
        "coding": [ {
          "system": "http://snomed.info/sct",
          "version": "2021-09",
          "code": "111297002",
          "display": "Nonparalytic stroke (disorder)",
          "userSelected": true
        } ]
      },
      "subject": {
        "reference": "Patient/a8856231-e110-4811-ac95-3f65c3d440fa"
      },
      "recordedDate": "2026-09-30T09:06:00.000Z"
    },
    "request": {
      "method": "PUT",
      "url": "Condition/25455a41-b39b-40ff-b5c8-64194ed2cdc5"
    }
  }, {
    "fullUrl": "https://madie.cms.gov/ServiceRequest/d7d94625-e53c-46ee-8aba-60dddcf9a440",
    "resource": {
      "resourceType": "ServiceRequest",
      "id": "d7d94625-e53c-46ee-8aba-60dddcf9a440",
      "meta": {
        "profile": [ "http://hl7.org/fhir/us/qicore/StructureDefinition/qicore-servicerequest" ]
      },
      "status": "active",
      "intent": "order",
      "code": {
        "coding": [ {
          "system": "http://snomed.info/sct",
          "code": "133918004"
        } ]
      },
      "subject": {
        "reference": "Patient/a8856231-e110-4811-ac95-3f65c3d440fa"
      },
      "authoredOn": "2026-09-30T08:01:00.000Z"
    },
    "request": {
      "method": "PUT",
      "url": "ServiceRequest/d7d94625-e53c-46ee-8aba-60dddcf9a440"
    }
  }, {
    "fullUrl": "https://madie.cms.gov/Claim/a55b8cb4-60b4-4c86-94ad-7d2367124f1e",
    "resource": {
      "resourceType": "Claim",
      "id": "a55b8cb4-60b4-4c86-94ad-7d2367124f1e",
      "meta": {
        "profile": [ "http://hl7.org/fhir/us/qicore/StructureDefinition/qicore-claim" ]
      },
      "status": "active",
      "type": {
        "coding": [ {
          "system": "http://terminology.hl7.org/CodeSystem/claim-type",
          "code": "institutional"
        } ]
      },
      "use": "claim",
      "patient": {
        "reference": "Patient/a8856231-e110-4811-ac95-3f65c3d440fa"
      },
      "created": "2026-12-01",
      "provider": {
        "reference": "Practitioner/d01cd4da-8b74-4aa8-bdcd-164110fc2a91"
      },
      "priority": {
        "coding": [ {
          "system": "http://terminology.hl7.org/CodeSystem/processpriority",
          "code": "normal"
        } ]
      },
      "diagnosis": [ {
        "sequence": 1,
        "diagnosisCodeableConcept": {
          "coding": [ {
            "system": "http://hl7.org/fhir/sid/icd-10-cm",
            "code": "I63.00"
          } ]
        },
        "type": [ {
          "coding": [ {
            "system": "http://terminology.hl7.org/CodeSystem/ex-diagnosistype",
            "code": "principal"
          } ]
        } ]
      } ],
      "insurance": [ {
        "sequence": 1,
        "focal": true,
        "coverage": {
          "reference": "Coverage/5fa041661c76ba66d9959367"
        }
      } ],
      "item": [ {
        "sequence": 1,
        "diagnosisSequence": [ 1 ],
        "productOrService": {
          "coding": [ {
            "system": "http://terminology.hl7.org/CodeSystem/ex-USCLS",
            "code": "99555"
          } ]
        },
        "encounter": [ {
          "reference": "Encounter/2539a008-66ea-402a-a6d1-4f813a82cd3f"
        } ]
      } ]
    },
    "request": {
      "method": "PUT",
      "url": "Claim/a55b8cb4-60b4-4c86-94ad-7d2367124f1e"
    }
  }, {
    "fullUrl": "https://madie.cms.gov/Coverage/93a6fc0d-fed4-4784-b475-80529ca5b9cd",
    "resource": {
      "resourceType": "Coverage",
      "id": "93a6fc0d-fed4-4784-b475-80529ca5b9cd",
      "meta": {
        "profile": [ "http://hl7.org/fhir/us/qicore/StructureDefinition/qicore-coverage" ]
      },
      "status": "active",
      "subscriberId": "523435",
      "beneficiary": {
        "reference": "Patient/a8856231-e110-4811-ac95-3f65c3d440fa"
      },
      "relationship": {
        "coding": [ {
          "system": "http://terminology.hl7.org/CodeSystem/subscriber-relationship",
          "code": "self"
        } ]
      },
      "payor": [ {
        "reference": "Organization/2f5bb255-4aac-4487-9e06-2fcf815ee295"
      } ]
    },
    "request": {
      "method": "PUT",
      "url": "Coverage/93a6fc0d-fed4-4784-b475-80529ca5b9cd"
    }
  }, {
    "fullUrl": "https://madie.cms.gov/Organization/2f5bb255-4aac-4487-9e06-2fcf815ee295",
    "resource": {
      "resourceType": "Organization",
      "id": "2f5bb255-4aac-4487-9e06-2fcf815ee295",
      "meta": {
        "profile": [ "http://hl7.org/fhir/us/qicore/StructureDefinition/qicore-organization" ]
      },
      "identifier": [ {
        "use": "temp",
        "system": "urn:oid:2.16.840.1.113883.4.4",
        "value": "21-3259825"
      } ],
      "active": true,
      "type": [ {
        "coding": [ {
          "system": "http://terminology.hl7.org/CodeSystem/organization-type",
          "code": "pay",
          "display": "Payer"
        } ]
      } ],
      "name": "Blue Cross Blue Shield of Texas",
      "telecom": [ {
        "system": "phone",
        "value": "(+1) 972-766-6900"
      } ],
      "address": [ {
        "use": "billing",
        "type": "postal",
        "line": [ "P.O. Box 660044" ],
        "city": "Dallas",
        "state": "TX",
        "postalCode": "75266-0044",
        "country": "USA"
      } ]
    },
    "request": {
      "method": "PUT",
      "url": "Organization/2f5bb255-4aac-4487-9e06-2fcf815ee295"
    }
  }, {
    "fullUrl": "https://madie.cms.gov/Practitioner/d01cd4da-8b74-4aa8-bdcd-164110fc2a91",
    "resource": {
      "resourceType": "Practitioner",
      "id": "d01cd4da-8b74-4aa8-bdcd-164110fc2a91",
      "meta": {
        "profile": [ "http://hl7.org/fhir/us/qicore/StructureDefinition/qicore-practitioner" ]
      },
      "identifier": [ {
        "system": "http://hl7.org/fhir/sid/us-npi",
        "value": "9999999896"
      } ],
      "name": [ {
        "family": "Evil",
        "prefix": [ "Dr" ]
      } ]
    },
    "request": {
      "method": "PUT",
      "url": "Practitioner/d01cd4da-8b74-4aa8-bdcd-164110fc2a91"
    }
  }, {
    "fullUrl": "https://madie.cms.gov/MeasureReport/6096a67c-8f06-41b9-8b58-c024b8766b75",
    "resource": {
      "resourceType": "MeasureReport",
      "id": "6096a67c-8f06-41b9-8b58-c024b8766b75",
      "meta": {
        "profile": [ "http://hl7.org/fhir/us/cqfmeasures/StructureDefinition/test-case-cqfm" ]
      },
      "contained": [ {
        "resourceType": "Parameters",
        "id": "1b646f36-ec58-4da3-ba72-5033ce4569be-parameters",
        "parameter": [ {
          "name": "subject",
          "valueString": "a8856231-e110-4811-ac95-3f65c3d440fa"
        } ]
      } ],
      "extension": [ {
        "url": "http://hl7.org/fhir/StructureDefinition/cqf-inputParameters",
        "valueReference": {
          "reference": "#1b646f36-ec58-4da3-ba72-5033ce4569be-parameters"
        }
      }, {
        "url": "http://hl7.org/fhir/us/cqfmeasures/StructureDefinition/cqfm-testCaseDescription",
        "valueMarkdown": "Patient receives CMO during ED. ED ends 1 min before Obs start and Obs ends 1 min before inpatient start.  Testing HospitalizationWithObservation function\n"
      } ],
      "modifierExtension": [ {
        "url": "http://hl7.org/fhir/us/cqfmeasures/StructureDefinition/cqfm-isTestCase",
        "valueBoolean": true
      } ],
      "status": "complete",
      "type": "individual",
      "measure": "https://madie.cms.gov/Measure/CMS71FHIRSTKAnticoagAFFlutter",
      "period": {
        "start": "2026-01-01",
        "end": "2026-12-31"
      },
      "group": [ {
        "id": "Group_1",
        "population": [ {
          "id": "InitialPopulation_1",
          "code": {
            "coding": [ {
              "system": "http://terminology.hl7.org/CodeSystem/measure-population",
              "code": "initial-population",
              "display": "Initial Population"
            } ]
          },
          "count": 1
        }, {
          "id": "Denominator_1",
          "code": {
            "coding": [ {
              "system": "http://terminology.hl7.org/CodeSystem/measure-population",
              "code": "denominator",
              "display": "Denominator"
            } ]
          },
          "count": 1
        }, {
          "id": "DenominatorExclusion_1",
          "code": {
            "coding": [ {
              "system": "http://terminology.hl7.org/CodeSystem/measure-population",
              "code": "denominator-exclusion",
              "display": "Denominator Exclusion"
            } ]
          },
          "count": 1
        }, {
          "id": "Numerator_1",
          "code": {
            "coding": [ {
              "system": "http://terminology.hl7.org/CodeSystem/measure-population",
              "code": "numerator",
              "display": "Numerator"
            } ]
          },
          "count": 0
        }, {
          "id": "DenominatorException_1",
          "code": {
            "coding": [ {
              "system": "http://terminology.hl7.org/CodeSystem/measure-population",
              "code": "denominator-exception",
              "display": "Denominator Exception"
            } ]
          },
          "count": 0
        } ],
        "measureScore": {
          "value": 0.0
        }
      } ],
      "evaluatedResource": [ {
        "reference": "Patient/a8856231-e110-4811-ac95-3f65c3d440fa"
      }, {
        "reference": "Condition/6a677fa4-432a-4783-bc0a-23f803776060"
      }, {
        "reference": "Encounter/ab7ef893-9d35-4223-aa10-44a96dadff69"
      }, {
        "reference": "Encounter/4a6a6b24-aa14-4750-abd9-b25ba6fa32bb"
      }, {
        "reference": "Encounter/2539a008-66ea-402a-a6d1-4f813a82cd3f"
      }, {
        "reference": "Condition/25455a41-b39b-40ff-b5c8-64194ed2cdc5"
      }, {
        "reference": "ServiceRequest/d7d94625-e53c-46ee-8aba-60dddcf9a440"
      }, {
        "reference": "Claim/a55b8cb4-60b4-4c86-94ad-7d2367124f1e"
      }, {
        "reference": "Coverage/93a6fc0d-fed4-4784-b475-80529ca5b9cd"
      }, {
        "reference": "Organization/2f5bb255-4aac-4487-9e06-2fcf815ee295"
      }, {
        "reference": "Practitioner/d01cd4da-8b74-4aa8-bdcd-164110fc2a91"
      } ]
    },
    "request": {
      "method": "PUT",
      "url": "MeasureReport/6096a67c-8f06-41b9-8b58-c024b8766b75"
    }
  } ]
}