{
  "resourceType": "Bundle",
  "id": "633c9d020968f8012250fc66",
  "type": "transaction",
  "entry": [ {
    "fullUrl": "https://madie.cms.gov/Patient/4580e833-7432-4f02-8742-8beceaac18e8",
    "resource": {
      "resourceType": "Patient",
      "id": "4580e833-7432-4f02-8742-8beceaac18e8",
      "meta": {
        "profile": [ "http://hl7.org/fhir/us/qicore/StructureDefinition/qicore-patient" ]
      },
      "text": {
        "status": "generated",
        "div": "<div xmlns=\"http://www.w3.org/1999/xhtml\"><div class=\"hapiHeaderText\">Anticoag@DC <b>NUMERPASS </b></div><table class=\"hapiPropertyTable\"><tbody><tr><td>Identifier</td><td>52c14de634122f39abfbd9ffaa41bc27</td></tr><tr><td>Date of birth</td><td><span>23 May 1954</span></td></tr></tbody></table></div>"
      },
      "extension": [ {
        "url": "http://hl7.org/fhir/us/core/StructureDefinition/us-core-race",
        "extension": [ {
          "url": "ombCategory",
          "valueCoding": {
            "system": "urn:oid:2.16.840.1.113883.6.238",
            "code": "1002-5",
            "display": "American Indian or Alaska Native",
            "userSelected": true
          }
        }, {
          "url": "text",
          "valueString": "American Indian or Alaska Native"
        } ]
      }, {
        "url": "http://hl7.org/fhir/us/core/StructureDefinition/us-core-ethnicity",
        "extension": [ {
          "url": "ombCategory",
          "valueCoding": {
            "system": "urn:oid:2.16.840.1.113883.6.238",
            "code": "2135-2",
            "display": "Hispanic or Latino",
            "userSelected": true
          }
        }, {
          "url": "text",
          "valueString": "Hispanic or Latino"
        } ]
      } ],
      "identifier": [ {
        "type": {
          "coding": [ {
            "system": "http://terminology.hl7.org/CodeSystem/v2-0203",
            "code": "MR"
          } ]
        },
        "system": "https://bonnie-fhir.healthit.gov/",
        "value": "633c9d020968f8012250fc66"
      } ],
      "active": true,
      "name": [ {
        "use": "usual",
        "family": "NUMERPass",
        "given": [ "AnticoagatDischDONOTPERForm" ]
      } ],
      "gender": "female",
      "birthDate": "1955-05-23"
    },
    "request": {
      "method": "PUT",
      "url": "Patient/4580e833-7432-4f02-8742-8beceaac18e8"
    }
  }, {
    "fullUrl": "https://madie.cms.gov/Encounter/6780b664-f4ab-4f18-b425-9819c78b6fff",
    "resource": {
      "resourceType": "Encounter",
      "id": "6780b664-f4ab-4f18-b425-9819c78b6fff",
      "meta": {
        "profile": [ "http://hl7.org/fhir/us/qicore/StructureDefinition/qicore-encounter" ]
      },
      "status": "finished",
      "class": {
        "system": "http://terminology.hl7.org/CodeSystem/v3-ActCode",
        "code": "IMP",
        "display": "inpatient encounter"
      },
      "type": [ {
        "coding": [ {
          "system": "http://snomed.info/sct",
          "code": "32485007"
        } ]
      } ],
      "subject": {
        "reference": "Patient/4580e833-7432-4f02-8742-8beceaac18e8"
      },
      "period": {
        "start": "2026-11-20T08:00:00.000Z",
        "end": "2026-11-24T08:15:00.000Z"
      },
      "length": {
        "value": 4,
        "unit": "days"
      },
      "reasonReference": [ {
        "reference": "Condition/628d5824-cf9b-41b0-9c20-99d41e5f9662"
      } ]
    },
    "request": {
      "method": "PUT",
      "url": "Encounter/6780b664-f4ab-4f18-b425-9819c78b6fff"
    }
  }, {
    "fullUrl": "https://madie.cms.gov/Claim/6f068a61-c2c3-41b7-bd7a-8f8a931dcd67",
    "resource": {
      "resourceType": "Claim",
      "id": "6f068a61-c2c3-41b7-bd7a-8f8a931dcd67",
      "meta": {
        "profile": [ "http://hl7.org/fhir/us/qicore/StructureDefinition/qicore-claim" ]
      },
      "status": "active",
      "type": {
        "coding": [ {
          "system": "http://terminology.hl7.org/CodeSystem/claim-type",
          "code": "institutional"
        } ]
      },
      "use": "claim",
      "patient": {
        "reference": "Patient/4580e833-7432-4f02-8742-8beceaac18e8"
      },
      "created": "2026-12-01",
      "provider": {
        "reference": "Practitioner/178d3b78-a686-406b-9854-2dc2bf83e98c"
      },
      "priority": {
        "coding": [ {
          "system": "http://terminology.hl7.org/CodeSystem/processpriority",
          "code": "normal"
        } ]
      },
      "diagnosis": [ {
        "sequence": 1,
        "diagnosisCodeableConcept": {
          "coding": [ {
            "system": "http://hl7.org/fhir/sid/icd-10-cm",
            "code": "I63.00"
          } ]
        },
        "type": [ {
          "coding": [ {
            "system": "http://terminology.hl7.org/CodeSystem/ex-diagnosistype",
            "code": "principal"
          } ]
        } ]
      } ],
      "insurance": [ {
        "sequence": 1,
        "focal": true,
        "coverage": {
          "reference": "Coverage/5fa041661c76ba66d9959367"
        }
      } ],
      "item": [ {
        "sequence": 1,
        "diagnosisSequence": [ 1 ],
        "productOrService": {
          "coding": [ {
            "system": "http://terminology.hl7.org/CodeSystem/ex-USCLS",
            "code": "99555"
          } ]
        },
        "encounter": [ {
          "reference": "Encounter/6780b664-f4ab-4f18-b425-9819c78b6fff"
        } ]
      } ]
    },
    "request": {
      "method": "PUT",
      "url": "Claim/6f068a61-c2c3-41b7-bd7a-8f8a931dcd67"
    }
  }, {
    "fullUrl": "https://madie.cms.gov/MedicationRequest/b2767e21-f3b4-4987-8114-a2797ad15b7a",
    "resource": {
      "resourceType": "MedicationRequest",
      "id": "b2767e21-f3b4-4987-8114-a2797ad15b7a",
      "meta": {
        "profile": [ "http://hl7.org/fhir/us/qicore/StructureDefinition/qicore-medicationrequest" ]
      },
      "status": "completed",
      "intent": "order",
      "category": [ {
        "coding": [ {
          "system": "http://terminology.hl7.org/CodeSystem/medicationrequest-category",
          "code": "community",
          "display": "Community",
          "userSelected": true
        } ]
      } ],
      "doNotPerform": false,
      "medicationCodeableConcept": {
        "coding": [ {
          "system": "http://www.nlm.nih.gov/research/umls/rxnorm",
          "version": "2022-01",
          "code": "308351",
          "display": "2.5 ML argatroban 100 MG/ML Injection",
          "userSelected": true
        } ]
      },
      "subject": {
        "reference": "Patient/4580e833-7432-4f02-8742-8beceaac18e8"
      },
      "authoredOn": "2026-11-24T08:00:00.000Z",
      "requester": {
        "reference": "Practitioner/example"
      }
    },
    "request": {
      "method": "PUT",
      "url": "MedicationRequest/b2767e21-f3b4-4987-8114-a2797ad15b7a"
    }
  }, {
    "fullUrl": "https://madie.cms.gov/Coverage/d69888ec-c5fd-4bb0-b006-c88f7f760074",
    "resource": {
      "resourceType": "Coverage",
      "id": "d69888ec-c5fd-4bb0-b006-c88f7f760074",
      "meta": {
        "profile": [ "http://hl7.org/fhir/us/qicore/StructureDefinition/qicore-coverage" ]
      },
      "status": "active",
      "subscriberId": "523435",
      "beneficiary": {
        "reference": "Patient/4580e833-7432-4f02-8742-8beceaac18e8"
      },
      "relationship": {
        "coding": [ {
          "system": "http://terminology.hl7.org/CodeSystem/subscriber-relationship",
          "code": "self"
        } ]
      },
      "payor": [ {
        "reference": "Organization/01a47297-c1f1-4231-9cac-d91ed1a8434f"
      } ]
    },
    "request": {
      "method": "PUT",
      "url": "Coverage/d69888ec-c5fd-4bb0-b006-c88f7f760074"
    }
  }, {
    "fullUrl": "https://madie.cms.gov/Procedure/ea9cd413-b191-4483-96f6-2e0e9a56e4cb",
    "resource": {
      "resourceType": "Procedure",
      "id": "ea9cd413-b191-4483-96f6-2e0e9a56e4cb",
      "meta": {
        "profile": [ "http://hl7.org/fhir/us/qicore/StructureDefinition/qicore-procedure" ]
      },
      "extension": [ {
        "url": "http://hl7.org/fhir/us/qicore/StructureDefinition/qicore-recorded",
        "valueDateTime": "2026-11-19T13:35:00.000Z"
      } ],
      "status": "completed",
      "code": {
        "coding": [ {
          "system": "http://www.cms.gov/Medicare/Coding/ICD10",
          "code": "02560ZZ"
        }, {
          "system": "http://snomed.info/sct",
          "code": "175095005"
        } ]
      },
      "subject": {
        "reference": "Patient/4580e833-7432-4f02-8742-8beceaac18e8"
      },
      "performedPeriod": {
        "start": "2026-11-20T06:00:00.000Z",
        "end": "2026-11-20T07:15:00.000Z"
      }
    },
    "request": {
      "method": "PUT",
      "url": "Procedure/ea9cd413-b191-4483-96f6-2e0e9a56e4cb"
    }
  }, {
    "fullUrl": "https://madie.cms.gov/Condition/628d5824-cf9b-41b0-9c20-99d41e5f9662",
    "resource": {
      "resourceType": "Condition",
      "id": "628d5824-cf9b-41b0-9c20-99d41e5f9662",
      "meta": {
        "profile": [ "http://hl7.org/fhir/us/qicore/StructureDefinition/qicore-condition-encounter-diagnosis" ]
      },
      "clinicalStatus": {
        "coding": [ {
          "system": "http://terminology.hl7.org/CodeSystem/condition-clinical",
          "code": "active"
        } ]
      },
      "verificationStatus": {
        "coding": [ {
          "system": "http://terminology.hl7.org/CodeSystem/condition-ver-status",
          "code": "confirmed"
        } ]
      },
      "category": [ {
        "coding": [ {
          "system": "http://terminology.hl7.org/CodeSystem/condition-category",
          "code": "encounter-diagnosis",
          "display": "Encounter Diagnosis"
        } ]
      } ],
      "code": {
        "coding": [ {
          "system": "http://snomed.info/sct",
          "version": "2021-09",
          "code": "111297002",
          "display": "Nonparalytic stroke (disorder)",
          "userSelected": true
        } ]
      },
      "subject": {
        "reference": "Patient/4580e833-7432-4f02-8742-8beceaac18e8"
      },
      "recordedDate": "2026-10-13T08:00:00.000Z"
    },
    "request": {
      "method": "PUT",
      "url": "Condition/628d5824-cf9b-41b0-9c20-99d41e5f9662"
    }
  }, {
    "fullUrl": "https://madie.cms.gov/Organization/01a47297-c1f1-4231-9cac-d91ed1a8434f",
    "resource": {
      "resourceType": "Organization",
      "id": "01a47297-c1f1-4231-9cac-d91ed1a8434f",
      "meta": {
        "profile": [ "http://hl7.org/fhir/us/qicore/StructureDefinition/qicore-organization" ]
      },
      "identifier": [ {
        "use": "temp",
        "system": "urn:oid:2.16.840.1.113883.4.4",
        "value": "21-3259825"
      } ],
      "active": true,
      "type": [ {
        "coding": [ {
          "system": "http://terminology.hl7.org/CodeSystem/organization-type",
          "code": "pay",
          "display": "Payer"
        } ]
      } ],
      "name": "Blue Cross Blue Shield of Texas",
      "telecom": [ {
        "system": "phone",
        "value": "(+1) 972-766-6900"
      } ],
      "address": [ {
        "use": "billing",
        "type": "postal",
        "line": [ "P.O. Box 660044" ],
        "city": "Dallas",
        "state": "TX",
        "postalCode": "75266-0044",
        "country": "USA"
      } ]
    },
    "request": {
      "method": "PUT",
      "url": "Organization/01a47297-c1f1-4231-9cac-d91ed1a8434f"
    }
  }, {
    "fullUrl": "https://madie.cms.gov/Practitioner/178d3b78-a686-406b-9854-2dc2bf83e98c",
    "resource": {
      "resourceType": "Practitioner",
      "id": "178d3b78-a686-406b-9854-2dc2bf83e98c",
      "meta": {
        "profile": [ "http://hl7.org/fhir/us/qicore/StructureDefinition/qicore-practitioner" ]
      },
      "identifier": [ {
        "system": "http://hl7.org/fhir/sid/us-npi",
        "value": "9999999896"
      } ],
      "name": [ {
        "family": "Evil",
        "prefix": [ "Dr" ]
      } ]
    },
    "request": {
      "method": "PUT",
      "url": "Practitioner/178d3b78-a686-406b-9854-2dc2bf83e98c"
    }
  }, {
    "fullUrl": "https://madie.cms.gov/MeasureReport/a6ef872a-24ec-40a3-8789-27cc8ecb1217",
    "resource": {
      "resourceType": "MeasureReport",
      "id": "a6ef872a-24ec-40a3-8789-27cc8ecb1217",
      "meta": {
        "profile": [ "http://hl7.org/fhir/us/cqfmeasures/StructureDefinition/test-case-cqfm" ]
      },
      "contained": [ {
        "resourceType": "Parameters",
        "id": "7540833a-fced-4688-b4aa-497de12cf75e-parameters",
        "parameter": [ {
          "name": "subject",
          "valueString": "4580e833-7432-4f02-8742-8beceaac18e8"
        } ]
      } ],
      "extension": [ {
        "url": "http://hl7.org/fhir/StructureDefinition/cqf-inputParameters",
        "valueReference": {
          "reference": "#7540833a-fced-4688-b4aa-497de12cf75e-parameters"
        }
      }, {
        "url": "http://hl7.org/fhir/us/cqfmeasures/StructureDefinition/cqfm-testCaseDescription",
        "valueMarkdown": "Testing anticoag do not perform for coverage=False"
      } ],
      "modifierExtension": [ {
        "url": "http://hl7.org/fhir/us/cqfmeasures/StructureDefinition/cqfm-isTestCase",
        "valueBoolean": true
      } ],
      "status": "complete",
      "type": "individual",
      "measure": "https://madie.cms.gov/Measure/CMS71FHIRSTKAnticoagAFFlutter",
      "period": {
        "start": "2026-01-01",
        "end": "2026-12-31"
      },
      "group": [ {
        "id": "Group_1",
        "population": [ {
          "id": "InitialPopulation_1",
          "code": {
            "coding": [ {
              "system": "http://terminology.hl7.org/CodeSystem/measure-population",
              "code": "initial-population",
              "display": "Initial Population"
            } ]
          },
          "count": 1
        }, {
          "id": "Denominator_1",
          "code": {
            "coding": [ {
              "system": "http://terminology.hl7.org/CodeSystem/measure-population",
              "code": "denominator",
              "display": "Denominator"
            } ]
          },
          "count": 1
        }, {
          "id": "DenominatorExclusion_1",
          "code": {
            "coding": [ {
              "system": "http://terminology.hl7.org/CodeSystem/measure-population",
              "code": "denominator-exclusion",
              "display": "Denominator Exclusion"
            } ]
          },
          "count": 0
        }, {
          "id": "Numerator_1",
          "code": {
            "coding": [ {
              "system": "http://terminology.hl7.org/CodeSystem/measure-population",
              "code": "numerator",
              "display": "Numerator"
            } ]
          },
          "count": 1
        }, {
          "id": "DenominatorException_1",
          "code": {
            "coding": [ {
              "system": "http://terminology.hl7.org/CodeSystem/measure-population",
              "code": "denominator-exception",
              "display": "Denominator Exception"
            } ]
          },
          "count": 0
        } ],
        "measureScore": {
          "value": 0.0
        }
      } ],
      "evaluatedResource": [ {
        "reference": "Patient/4580e833-7432-4f02-8742-8beceaac18e8"
      }, {
        "reference": "Encounter/6780b664-f4ab-4f18-b425-9819c78b6fff"
      }, {
        "reference": "Claim/6f068a61-c2c3-41b7-bd7a-8f8a931dcd67"
      }, {
        "reference": "MedicationRequest/b2767e21-f3b4-4987-8114-a2797ad15b7a"
      }, {
        "reference": "Coverage/d69888ec-c5fd-4bb0-b006-c88f7f760074"
      }, {
        "reference": "Procedure/ea9cd413-b191-4483-96f6-2e0e9a56e4cb"
      }, {
        "reference": "Condition/628d5824-cf9b-41b0-9c20-99d41e5f9662"
      }, {
        "reference": "Organization/01a47297-c1f1-4231-9cac-d91ed1a8434f"
      }, {
        "reference": "Practitioner/178d3b78-a686-406b-9854-2dc2bf83e98c"
      } ]
    },
    "request": {
      "method": "PUT",
      "url": "MeasureReport/a6ef872a-24ec-40a3-8789-27cc8ecb1217"
    }
  } ]
}