{
  "resourceType": "Bundle",
  "id": "633c9d030968f8012250fc81",
  "type": "transaction",
  "entry": [ {
    "fullUrl": "https://madie.cms.gov/Patient/b3bcdbbc-3b69-4e22-b993-b04d87f225a8",
    "resource": {
      "resourceType": "Patient",
      "id": "b3bcdbbc-3b69-4e22-b993-b04d87f225a8",
      "meta": {
        "profile": [ "http://hl7.org/fhir/us/qicore/StructureDefinition/qicore-patient" ]
      },
      "text": {
        "status": "generated",
        "div": "<div xmlns=\"http://www.w3.org/1999/xhtml\"><div class=\"hapiHeaderText\">CMOdurEnc_ED&gt;1hrNoObsBFEnc <b>DENEXPASS </b></div><table class=\"hapiPropertyTable\"><tbody><tr><td>Identifier</td><td>598ef08c763129d6d7c5f79b51d3f082</td></tr><tr><td>Date of birth</td><td><span>18 September 1985</span></td></tr></tbody></table></div>"
      },
      "extension": [ {
        "url": "http://hl7.org/fhir/us/core/StructureDefinition/us-core-race",
        "extension": [ {
          "url": "ombCategory",
          "valueCoding": {
            "system": "urn:oid:2.16.840.1.113883.6.238",
            "code": "1002-5",
            "display": "American Indian or Alaska Native",
            "userSelected": true
          }
        }, {
          "url": "text",
          "valueString": "American Indian or Alaska Native"
        } ]
      }, {
        "url": "http://hl7.org/fhir/us/core/StructureDefinition/us-core-ethnicity",
        "extension": [ {
          "url": "ombCategory",
          "valueCoding": {
            "system": "urn:oid:2.16.840.1.113883.6.238",
            "code": "2135-2",
            "display": "Hispanic or Latino",
            "userSelected": true
          }
        }, {
          "url": "text",
          "valueString": "Hispanic or Latino"
        } ]
      } ],
      "identifier": [ {
        "type": {
          "coding": [ {
            "system": "http://terminology.hl7.org/CodeSystem/v2-0203",
            "code": "MR"
          } ]
        },
        "system": "https://bonnie-fhir.healthit.gov/",
        "value": "633c9d030968f8012250fc81"
      } ],
      "active": true,
      "name": [ {
        "use": "usual",
        "family": "DENEXPass",
        "given": [ "CMOdurEnc_ED>1hrNoObsBFEnc" ]
      } ],
      "gender": "female",
      "birthDate": "1986-09-18"
    },
    "request": {
      "method": "PUT",
      "url": "Patient/b3bcdbbc-3b69-4e22-b993-b04d87f225a8"
    }
  }, {
    "fullUrl": "https://madie.cms.gov/Condition/fea9d153-e01f-4211-a66f-25257c03eca3",
    "resource": {
      "resourceType": "Condition",
      "id": "fea9d153-e01f-4211-a66f-25257c03eca3",
      "meta": {
        "profile": [ "http://hl7.org/fhir/us/qicore/StructureDefinition/qicore-condition-problems-health-concerns" ]
      },
      "clinicalStatus": {
        "coding": [ {
          "system": "http://terminology.hl7.org/CodeSystem/condition-clinical",
          "code": "inactive"
        } ]
      },
      "verificationStatus": {
        "coding": [ {
          "system": "http://terminology.hl7.org/CodeSystem/condition-ver-status",
          "code": "confirmed"
        } ]
      },
      "category": [ {
        "coding": [ {
          "system": "http://terminology.hl7.org/CodeSystem/condition-category",
          "code": "problem-list-item"
        } ]
      } ],
      "code": {
        "coding": [ {
          "system": "http://hl7.org/fhir/sid/icd-10-cm",
          "code": "I48.20"
        }, {
          "system": "http://hl7.org/fhir/sid/icd-10-cm",
          "code": "I48.0"
        }, {
          "system": "http://snomed.info/sct",
          "code": "5370000"
        } ]
      },
      "subject": {
        "reference": "Patient/b3bcdbbc-3b69-4e22-b993-b04d87f225a8"
      },
      "onsetDateTime": "2026-10-01T09:00:00.000Z",
      "abatementDateTime": "2026-10-12T00:15:00.000Z"
    },
    "request": {
      "method": "PUT",
      "url": "Condition/fea9d153-e01f-4211-a66f-25257c03eca3"
    }
  }, {
    "fullUrl": "https://madie.cms.gov/Encounter/8b9aa72a-df37-4138-8835-57a85d17349f",
    "resource": {
      "resourceType": "Encounter",
      "id": "8b9aa72a-df37-4138-8835-57a85d17349f",
      "meta": {
        "profile": [ "http://hl7.org/fhir/us/qicore/StructureDefinition/qicore-encounter" ]
      },
      "status": "finished",
      "class": {
        "system": "http://terminology.hl7.org/CodeSystem/v3-ActCode",
        "code": "EMER",
        "display": "emergency"
      },
      "type": [ {
        "coding": [ {
          "system": "http://snomed.info/sct",
          "code": "4525004"
        } ]
      } ],
      "subject": {
        "reference": "Patient/b3bcdbbc-3b69-4e22-b993-b04d87f225a8"
      },
      "period": {
        "start": "2026-10-01T08:00:00.000Z",
        "end": "2026-10-01T08:59:00.000Z"
      },
      "length": {
        "value": 0,
        "unit": "days"
      }
    },
    "request": {
      "method": "PUT",
      "url": "Encounter/8b9aa72a-df37-4138-8835-57a85d17349f"
    }
  }, {
    "fullUrl": "https://madie.cms.gov/Encounter/d3b6ccfa-aefd-464f-a99c-75b11e5fb846",
    "resource": {
      "resourceType": "Encounter",
      "id": "d3b6ccfa-aefd-464f-a99c-75b11e5fb846",
      "meta": {
        "profile": [ "http://hl7.org/fhir/us/qicore/StructureDefinition/qicore-encounter" ]
      },
      "status": "finished",
      "class": {
        "system": "http://terminology.hl7.org/CodeSystem/v3-ActCode",
        "code": "IMP",
        "display": "inpatient encounter"
      },
      "type": [ {
        "coding": [ {
          "system": "http://snomed.info/sct",
          "code": "32485007"
        } ]
      } ],
      "subject": {
        "reference": "Patient/b3bcdbbc-3b69-4e22-b993-b04d87f225a8"
      },
      "period": {
        "start": "2026-10-01T10:00:00.000Z",
        "end": "2026-10-12T00:15:00.000Z"
      },
      "length": {
        "value": 11,
        "unit": "days"
      },
      "reasonReference": [ {
        "reference": "Condition/fea9d153-e01f-4211-a66f-25257c03eca3"
      } ]
    },
    "request": {
      "method": "PUT",
      "url": "Encounter/d3b6ccfa-aefd-464f-a99c-75b11e5fb846"
    }
  }, {
    "fullUrl": "https://madie.cms.gov/ServiceRequest/772f8865-f4e7-4f5d-9379-e5d75d8f840b",
    "resource": {
      "resourceType": "ServiceRequest",
      "id": "772f8865-f4e7-4f5d-9379-e5d75d8f840b",
      "meta": {
        "profile": [ "http://hl7.org/fhir/us/qicore/StructureDefinition/qicore-servicerequest" ]
      },
      "status": "active",
      "intent": "order",
      "code": {
        "coding": [ {
          "system": "http://snomed.info/sct",
          "code": "133918004"
        } ]
      },
      "subject": {
        "reference": "Patient/b3bcdbbc-3b69-4e22-b993-b04d87f225a8"
      },
      "authoredOn": "2026-10-01T10:00:00.000Z"
    },
    "request": {
      "method": "PUT",
      "url": "ServiceRequest/772f8865-f4e7-4f5d-9379-e5d75d8f840b"
    }
  }, {
    "fullUrl": "https://madie.cms.gov/Claim/a9028424-078e-478f-a4ca-0e69522898d8",
    "resource": {
      "resourceType": "Claim",
      "id": "a9028424-078e-478f-a4ca-0e69522898d8",
      "meta": {
        "profile": [ "http://hl7.org/fhir/us/qicore/StructureDefinition/qicore-claim" ]
      },
      "status": "active",
      "type": {
        "coding": [ {
          "system": "http://terminology.hl7.org/CodeSystem/claim-type",
          "code": "institutional"
        } ]
      },
      "use": "claim",
      "patient": {
        "reference": "Patient/b3bcdbbc-3b69-4e22-b993-b04d87f225a8"
      },
      "created": "2026-12-01",
      "provider": {
        "reference": "Practitioner/07ab3cc9-e094-4eed-b4b3-c1d246c0e8fd"
      },
      "priority": {
        "coding": [ {
          "system": "http://terminology.hl7.org/CodeSystem/processpriority",
          "code": "normal"
        } ]
      },
      "diagnosis": [ {
        "sequence": 1,
        "diagnosisCodeableConcept": {
          "coding": [ {
            "system": "http://hl7.org/fhir/sid/icd-10-cm",
            "code": "I63.00"
          } ]
        },
        "type": [ {
          "coding": [ {
            "system": "http://terminology.hl7.org/CodeSystem/ex-diagnosistype",
            "code": "principal"
          } ]
        } ]
      } ],
      "insurance": [ {
        "sequence": 1,
        "focal": true,
        "coverage": {
          "reference": "Coverage/5fa041661c76ba66d9959367"
        }
      } ],
      "item": [ {
        "sequence": 1,
        "diagnosisSequence": [ 1 ],
        "productOrService": {
          "coding": [ {
            "system": "http://terminology.hl7.org/CodeSystem/ex-USCLS",
            "code": "99555"
          } ]
        },
        "encounter": [ {
          "reference": "Encounter/d3b6ccfa-aefd-464f-a99c-75b11e5fb846"
        } ]
      } ]
    },
    "request": {
      "method": "PUT",
      "url": "Claim/a9028424-078e-478f-a4ca-0e69522898d8"
    }
  }, {
    "fullUrl": "https://madie.cms.gov/Coverage/06921b1d-dfff-48be-97c6-d9c2bc2a24e7",
    "resource": {
      "resourceType": "Coverage",
      "id": "06921b1d-dfff-48be-97c6-d9c2bc2a24e7",
      "status": "active",
      "subscriberId": "523435",
      "beneficiary": {
        "reference": "Patient/b3bcdbbc-3b69-4e22-b993-b04d87f225a8"
      },
      "relationship": {
        "coding": [ {
          "system": "http://terminology.hl7.org/CodeSystem/subscriber-relationship",
          "code": "self"
        } ]
      },
      "period": {
        "start": "1986-09-18T08:00:00.000Z"
      },
      "payor": [ {
        "reference": "Organization/fe139e9b-d827-4782-a270-6defe8d33d29"
      } ]
    },
    "request": {
      "method": "PUT",
      "url": "Coverage/06921b1d-dfff-48be-97c6-d9c2bc2a24e7"
    }
  }, {
    "fullUrl": "https://madie.cms.gov/Condition/64cba7dd-1383-4806-af47-2bb81fe653f8",
    "resource": {
      "resourceType": "Condition",
      "id": "64cba7dd-1383-4806-af47-2bb81fe653f8",
      "meta": {
        "profile": [ "http://hl7.org/fhir/us/qicore/StructureDefinition/qicore-condition-encounter-diagnosis" ]
      },
      "clinicalStatus": {
        "coding": [ {
          "system": "http://terminology.hl7.org/CodeSystem/condition-clinical",
          "code": "active"
        } ]
      },
      "verificationStatus": {
        "coding": [ {
          "system": "http://terminology.hl7.org/CodeSystem/condition-ver-status",
          "code": "confirmed"
        } ]
      },
      "category": [ {
        "coding": [ {
          "system": "http://terminology.hl7.org/CodeSystem/condition-category",
          "code": "encounter-diagnosis",
          "display": "Encounter Diagnosis"
        } ]
      } ],
      "code": {
        "coding": [ {
          "system": "http://snomed.info/sct",
          "version": "2021-09",
          "code": "111297002",
          "display": "Nonparalytic stroke (disorder)",
          "userSelected": true
        } ]
      },
      "subject": {
        "reference": "Patient/b3bcdbbc-3b69-4e22-b993-b04d87f225a8"
      },
      "recordedDate": "2026-10-13T08:00:00.000Z"
    },
    "request": {
      "method": "PUT",
      "url": "Condition/64cba7dd-1383-4806-af47-2bb81fe653f8"
    }
  }, {
    "fullUrl": "https://madie.cms.gov/Organization/fe139e9b-d827-4782-a270-6defe8d33d29",
    "resource": {
      "resourceType": "Organization",
      "id": "fe139e9b-d827-4782-a270-6defe8d33d29",
      "meta": {
        "profile": [ "http://hl7.org/fhir/us/qicore/StructureDefinition/qicore-organization" ]
      },
      "identifier": [ {
        "use": "temp",
        "system": "urn:oid:2.16.840.1.113883.4.4",
        "value": "21-3259825"
      } ],
      "active": true,
      "type": [ {
        "coding": [ {
          "system": "http://terminology.hl7.org/CodeSystem/organization-type",
          "code": "pay",
          "display": "Payer"
        } ]
      } ],
      "name": "Blue Cross Blue Shield of Texas",
      "telecom": [ {
        "system": "phone",
        "value": "(+1) 972-766-6900"
      } ],
      "address": [ {
        "use": "billing",
        "type": "postal",
        "line": [ "P.O. Box 660044" ],
        "city": "Dallas",
        "state": "TX",
        "postalCode": "75266-0044",
        "country": "USA"
      } ]
    },
    "request": {
      "method": "PUT",
      "url": "Organization/fe139e9b-d827-4782-a270-6defe8d33d29"
    }
  }, {
    "fullUrl": "https://madie.cms.gov/Practitioner/07ab3cc9-e094-4eed-b4b3-c1d246c0e8fd",
    "resource": {
      "resourceType": "Practitioner",
      "id": "07ab3cc9-e094-4eed-b4b3-c1d246c0e8fd",
      "meta": {
        "profile": [ "http://hl7.org/fhir/us/qicore/StructureDefinition/qicore-practitioner" ]
      },
      "identifier": [ {
        "system": "http://hl7.org/fhir/sid/us-npi",
        "value": "9999999896"
      } ],
      "name": [ {
        "family": "Evil",
        "prefix": [ "Dr" ]
      } ]
    },
    "request": {
      "method": "PUT",
      "url": "Practitioner/07ab3cc9-e094-4eed-b4b3-c1d246c0e8fd"
    }
  }, {
    "fullUrl": "https://madie.cms.gov/MeasureReport/3f1db6e3-23b9-415f-8c10-e7fae3661a8a",
    "resource": {
      "resourceType": "MeasureReport",
      "id": "3f1db6e3-23b9-415f-8c10-e7fae3661a8a",
      "meta": {
        "profile": [ "http://hl7.org/fhir/us/cqfmeasures/StructureDefinition/test-case-cqfm" ]
      },
      "contained": [ {
        "resourceType": "Parameters",
        "id": "3a174e4c-d4b8-4976-8a09-709b306c96b2-parameters",
        "parameter": [ {
          "name": "subject",
          "valueString": "b3bcdbbc-3b69-4e22-b993-b04d87f225a8"
        } ]
      } ],
      "extension": [ {
        "url": "http://hl7.org/fhir/StructureDefinition/cqf-inputParameters",
        "valueReference": {
          "reference": "#3a174e4c-d4b8-4976-8a09-709b306c96b2-parameters"
        }
      }, {
        "url": "http://hl7.org/fhir/us/cqfmeasures/StructureDefinition/cqfm-testCaseDescription",
        "valueMarkdown": "Patient receives CMO during inpatient encounter. ED ends 61 minutes before inpatient encounter start on the same day. No Observation. Testing HospitalizationWithObservation function.\n"
      } ],
      "modifierExtension": [ {
        "url": "http://hl7.org/fhir/us/cqfmeasures/StructureDefinition/cqfm-isTestCase",
        "valueBoolean": true
      } ],
      "status": "complete",
      "type": "individual",
      "measure": "https://madie.cms.gov/Measure/CMS71FHIRSTKAnticoagAFFlutter",
      "period": {
        "start": "2026-01-01",
        "end": "2026-12-31"
      },
      "group": [ {
        "id": "Group_1",
        "population": [ {
          "id": "InitialPopulation_1",
          "code": {
            "coding": [ {
              "system": "http://terminology.hl7.org/CodeSystem/measure-population",
              "code": "initial-population",
              "display": "Initial Population"
            } ]
          },
          "count": 1
        }, {
          "id": "Denominator_1",
          "code": {
            "coding": [ {
              "system": "http://terminology.hl7.org/CodeSystem/measure-population",
              "code": "denominator",
              "display": "Denominator"
            } ]
          },
          "count": 1
        }, {
          "id": "DenominatorExclusion_1",
          "code": {
            "coding": [ {
              "system": "http://terminology.hl7.org/CodeSystem/measure-population",
              "code": "denominator-exclusion",
              "display": "Denominator Exclusion"
            } ]
          },
          "count": 1
        }, {
          "id": "Numerator_1",
          "code": {
            "coding": [ {
              "system": "http://terminology.hl7.org/CodeSystem/measure-population",
              "code": "numerator",
              "display": "Numerator"
            } ]
          },
          "count": 0
        }, {
          "id": "DenominatorException_1",
          "code": {
            "coding": [ {
              "system": "http://terminology.hl7.org/CodeSystem/measure-population",
              "code": "denominator-exception",
              "display": "Denominator Exception"
            } ]
          },
          "count": 0
        } ],
        "measureScore": {
          "value": 0.0
        }
      } ],
      "evaluatedResource": [ {
        "reference": "Patient/b3bcdbbc-3b69-4e22-b993-b04d87f225a8"
      }, {
        "reference": "Condition/fea9d153-e01f-4211-a66f-25257c03eca3"
      }, {
        "reference": "Encounter/8b9aa72a-df37-4138-8835-57a85d17349f"
      }, {
        "reference": "Encounter/d3b6ccfa-aefd-464f-a99c-75b11e5fb846"
      }, {
        "reference": "ServiceRequest/772f8865-f4e7-4f5d-9379-e5d75d8f840b"
      }, {
        "reference": "Claim/a9028424-078e-478f-a4ca-0e69522898d8"
      }, {
        "reference": "Coverage/06921b1d-dfff-48be-97c6-d9c2bc2a24e7"
      }, {
        "reference": "Condition/64cba7dd-1383-4806-af47-2bb81fe653f8"
      }, {
        "reference": "Organization/fe139e9b-d827-4782-a270-6defe8d33d29"
      }, {
        "reference": "Practitioner/07ab3cc9-e094-4eed-b4b3-c1d246c0e8fd"
      } ]
    },
    "request": {
      "method": "PUT",
      "url": "MeasureReport/3f1db6e3-23b9-415f-8c10-e7fae3661a8a"
    }
  } ]
}