{
  "resourceType": "Bundle",
  "id": "633c9d030968f8012250fc9b",
  "type": "transaction",
  "entry": [ {
    "fullUrl": "https://madie.cms.gov/Patient/b1d0c606-661d-44e8-a25f-4e7ca8131f2a",
    "resource": {
      "resourceType": "Patient",
      "id": "b1d0c606-661d-44e8-a25f-4e7ca8131f2a",
      "meta": {
        "profile": [ "http://hl7.org/fhir/us/qicore/StructureDefinition/qicore-patient" ]
      },
      "text": {
        "status": "generated",
        "div": "<div xmlns=\"http://www.w3.org/1999/xhtml\"><div class=\"hapiHeaderText\">CMOdurEnc_ED&gt;1hrObs&gt;1hrBFEnc <b>DENEXPASS </b></div><table class=\"hapiPropertyTable\"><tbody><tr><td>Identifier</td><td>46dce2b3319988ed781af0093af5d517</td></tr><tr><td>Date of birth</td><td><span>18 September 1985</span></td></tr></tbody></table></div>"
      },
      "extension": [ {
        "url": "http://hl7.org/fhir/us/core/StructureDefinition/us-core-race",
        "extension": [ {
          "url": "ombCategory",
          "valueCoding": {
            "system": "urn:oid:2.16.840.1.113883.6.238",
            "code": "1002-5",
            "display": "American Indian or Alaska Native",
            "userSelected": true
          }
        }, {
          "url": "text",
          "valueString": "American Indian or Alaska Native"
        } ]
      }, {
        "url": "http://hl7.org/fhir/us/core/StructureDefinition/us-core-ethnicity",
        "extension": [ {
          "url": "ombCategory",
          "valueCoding": {
            "system": "urn:oid:2.16.840.1.113883.6.238",
            "code": "2135-2",
            "display": "Hispanic or Latino",
            "userSelected": true
          }
        }, {
          "url": "text",
          "valueString": "Hispanic or Latino"
        } ]
      } ],
      "identifier": [ {
        "type": {
          "coding": [ {
            "system": "http://terminology.hl7.org/CodeSystem/v2-0203",
            "code": "MR"
          } ]
        },
        "system": "https://bonnie-fhir.healthit.gov/",
        "value": "633c9d030968f8012250fc9b"
      } ],
      "active": true,
      "name": [ {
        "use": "usual",
        "family": "DENEXPass",
        "given": [ "CMOdurEnc_ED>1hrObs>1hrBFEnc" ]
      } ],
      "gender": "female",
      "birthDate": "1986-09-18"
    },
    "request": {
      "method": "PUT",
      "url": "Patient/b1d0c606-661d-44e8-a25f-4e7ca8131f2a"
    }
  }, {
    "fullUrl": "https://madie.cms.gov/Condition/39e391ef-2771-48b9-84cf-9f51c93553e3",
    "resource": {
      "resourceType": "Condition",
      "id": "39e391ef-2771-48b9-84cf-9f51c93553e3",
      "meta": {
        "profile": [ "http://hl7.org/fhir/us/qicore/StructureDefinition/qicore-condition-encounter-diagnosis" ]
      },
      "clinicalStatus": {
        "coding": [ {
          "system": "http://terminology.hl7.org/CodeSystem/condition-clinical",
          "code": "inactive"
        } ]
      },
      "verificationStatus": {
        "coding": [ {
          "system": "http://terminology.hl7.org/CodeSystem/condition-ver-status",
          "code": "confirmed"
        } ]
      },
      "category": [ {
        "coding": [ {
          "system": "http://terminology.hl7.org/CodeSystem/condition-category",
          "code": "encounter-diagnosis",
          "display": "Encounter Diagnosis"
        } ]
      } ],
      "code": {
        "coding": [ {
          "system": "http://hl7.org/fhir/sid/icd-10-cm",
          "code": "I48.20"
        }, {
          "system": "http://hl7.org/fhir/sid/icd-10-cm",
          "code": "I48.0"
        }, {
          "system": "http://snomed.info/sct",
          "code": "5370000"
        } ]
      },
      "subject": {
        "reference": "Patient/b1d0c606-661d-44e8-a25f-4e7ca8131f2a"
      },
      "onsetDateTime": "2026-10-01T09:00:00.000Z",
      "abatementDateTime": "2026-10-12T00:15:00.000Z"
    },
    "request": {
      "method": "PUT",
      "url": "Condition/39e391ef-2771-48b9-84cf-9f51c93553e3"
    }
  }, {
    "fullUrl": "https://madie.cms.gov/Encounter/2f34e455-df60-4724-a8fb-748227e8dc3b",
    "resource": {
      "resourceType": "Encounter",
      "id": "2f34e455-df60-4724-a8fb-748227e8dc3b",
      "meta": {
        "profile": [ "http://hl7.org/fhir/us/qicore/StructureDefinition/qicore-encounter" ]
      },
      "status": "finished",
      "class": {
        "system": "http://terminology.hl7.org/CodeSystem/v3-ActCode",
        "code": "EMER",
        "display": "emergency"
      },
      "type": [ {
        "coding": [ {
          "system": "http://snomed.info/sct",
          "code": "4525004"
        } ]
      } ],
      "subject": {
        "reference": "Patient/b1d0c606-661d-44e8-a25f-4e7ca8131f2a"
      },
      "period": {
        "start": "2026-10-01T07:59:00.000Z",
        "end": "2026-10-01T08:00:00.000Z"
      },
      "length": {
        "value": 0,
        "unit": "days"
      }
    },
    "request": {
      "method": "PUT",
      "url": "Encounter/2f34e455-df60-4724-a8fb-748227e8dc3b"
    }
  }, {
    "fullUrl": "https://madie.cms.gov/Encounter/8c3c44ef-4753-4e3c-9e9a-1f53104f7a72",
    "resource": {
      "resourceType": "Encounter",
      "id": "8c3c44ef-4753-4e3c-9e9a-1f53104f7a72",
      "meta": {
        "profile": [ "http://hl7.org/fhir/us/qicore/StructureDefinition/qicore-encounter" ]
      },
      "status": "finished",
      "class": {
        "system": "http://terminology.hl7.org/CodeSystem/v3-ActCode",
        "code": "OBSENC",
        "display": "observation encounter"
      },
      "type": [ {
        "coding": [ {
          "system": "http://snomed.info/sct",
          "code": "448851000124103"
        } ]
      } ],
      "subject": {
        "reference": "Patient/b1d0c606-661d-44e8-a25f-4e7ca8131f2a"
      },
      "period": {
        "start": "2026-10-01T09:01:00.000Z",
        "end": "2026-10-01T09:30:00.000Z"
      },
      "length": {
        "value": 0,
        "unit": "days"
      }
    },
    "request": {
      "method": "PUT",
      "url": "Encounter/8c3c44ef-4753-4e3c-9e9a-1f53104f7a72"
    }
  }, {
    "fullUrl": "https://madie.cms.gov/Encounter/694facd2-4970-4d8c-9f94-02865f4ad7b5",
    "resource": {
      "resourceType": "Encounter",
      "id": "694facd2-4970-4d8c-9f94-02865f4ad7b5",
      "meta": {
        "profile": [ "http://hl7.org/fhir/us/qicore/StructureDefinition/qicore-encounter" ]
      },
      "status": "finished",
      "class": {
        "system": "http://terminology.hl7.org/CodeSystem/v3-ActCode",
        "code": "IMP",
        "display": "inpatient encounter"
      },
      "type": [ {
        "coding": [ {
          "system": "http://snomed.info/sct",
          "code": "32485007"
        } ]
      } ],
      "subject": {
        "reference": "Patient/b1d0c606-661d-44e8-a25f-4e7ca8131f2a"
      },
      "period": {
        "start": "2026-10-01T10:31:00.000Z",
        "end": "2026-10-12T00:15:00.000Z"
      },
      "length": {
        "value": 11,
        "unit": "days"
      },
      "reasonReference": [ {
        "reference": "Condition/39e391ef-2771-48b9-84cf-9f51c93553e3"
      } ]
    },
    "request": {
      "method": "PUT",
      "url": "Encounter/694facd2-4970-4d8c-9f94-02865f4ad7b5"
    }
  }, {
    "fullUrl": "https://madie.cms.gov/Claim/44509823-ed08-4bba-a0fb-296957ef6fe9",
    "resource": {
      "resourceType": "Claim",
      "id": "44509823-ed08-4bba-a0fb-296957ef6fe9",
      "meta": {
        "profile": [ "http://hl7.org/fhir/us/qicore/StructureDefinition/qicore-claim" ]
      },
      "status": "active",
      "type": {
        "coding": [ {
          "system": "http://terminology.hl7.org/CodeSystem/claim-type",
          "code": "institutional"
        } ]
      },
      "use": "claim",
      "patient": {
        "reference": "Patient/b1d0c606-661d-44e8-a25f-4e7ca8131f2a"
      },
      "created": "2026-12-01",
      "provider": {
        "reference": "Practitioner/b28bf1ba-ad0c-4194-9ec6-8538bc3aae49"
      },
      "priority": {
        "coding": [ {
          "system": "http://terminology.hl7.org/CodeSystem/processpriority",
          "code": "normal"
        } ]
      },
      "diagnosis": [ {
        "sequence": 1,
        "diagnosisCodeableConcept": {
          "coding": [ {
            "system": "http://hl7.org/fhir/sid/icd-10-cm",
            "code": "I63.00"
          } ]
        },
        "type": [ {
          "coding": [ {
            "system": "http://terminology.hl7.org/CodeSystem/ex-diagnosistype",
            "code": "principal"
          } ]
        } ]
      } ],
      "insurance": [ {
        "sequence": 1,
        "focal": true,
        "coverage": {
          "reference": "Coverage/5fa041661c76ba66d9959367"
        }
      } ],
      "item": [ {
        "sequence": 1,
        "diagnosisSequence": [ 1 ],
        "productOrService": {
          "coding": [ {
            "system": "http://terminology.hl7.org/CodeSystem/ex-USCLS",
            "code": "99555"
          } ]
        },
        "encounter": [ {
          "reference": "Encounter/694facd2-4970-4d8c-9f94-02865f4ad7b5"
        } ]
      } ]
    },
    "request": {
      "method": "PUT",
      "url": "Claim/44509823-ed08-4bba-a0fb-296957ef6fe9"
    }
  }, {
    "fullUrl": "https://madie.cms.gov/ServiceRequest/e719e6fa-4621-467b-911d-58c18f37e8fe",
    "resource": {
      "resourceType": "ServiceRequest",
      "id": "e719e6fa-4621-467b-911d-58c18f37e8fe",
      "meta": {
        "profile": [ "http://hl7.org/fhir/us/qicore/StructureDefinition/qicore-servicerequest" ]
      },
      "status": "active",
      "intent": "order",
      "code": {
        "coding": [ {
          "system": "http://snomed.info/sct",
          "code": "133918004"
        } ]
      },
      "subject": {
        "reference": "Patient/b1d0c606-661d-44e8-a25f-4e7ca8131f2a"
      },
      "authoredOn": "2026-10-01T11:30:00.000Z"
    },
    "request": {
      "method": "PUT",
      "url": "ServiceRequest/e719e6fa-4621-467b-911d-58c18f37e8fe"
    }
  }, {
    "fullUrl": "https://madie.cms.gov/Coverage/7d1191b8-cf58-44c9-b860-cd14f9b82823",
    "resource": {
      "resourceType": "Coverage",
      "id": "7d1191b8-cf58-44c9-b860-cd14f9b82823",
      "status": "active",
      "subscriberId": "523435",
      "beneficiary": {
        "reference": "Patient/b1d0c606-661d-44e8-a25f-4e7ca8131f2a"
      },
      "relationship": {
        "coding": [ {
          "system": "http://terminology.hl7.org/CodeSystem/subscriber-relationship",
          "code": "self"
        } ]
      },
      "period": {
        "start": "1986-09-18T08:00:00.000Z"
      },
      "payor": [ {
        "reference": "Organization/f14badf1-7275-4454-8a10-7cf761baa00f"
      } ]
    },
    "request": {
      "method": "PUT",
      "url": "Coverage/7d1191b8-cf58-44c9-b860-cd14f9b82823"
    }
  }, {
    "fullUrl": "https://madie.cms.gov/Condition/e78f498b-31d0-4a00-aaa4-732b9d2acd62",
    "resource": {
      "resourceType": "Condition",
      "id": "e78f498b-31d0-4a00-aaa4-732b9d2acd62",
      "meta": {
        "profile": [ "http://hl7.org/fhir/us/qicore/StructureDefinition/qicore-condition-encounter-diagnosis" ]
      },
      "clinicalStatus": {
        "coding": [ {
          "system": "http://terminology.hl7.org/CodeSystem/condition-clinical",
          "code": "active"
        } ]
      },
      "verificationStatus": {
        "coding": [ {
          "system": "http://terminology.hl7.org/CodeSystem/condition-ver-status",
          "code": "confirmed"
        } ]
      },
      "category": [ {
        "coding": [ {
          "system": "http://terminology.hl7.org/CodeSystem/condition-category",
          "code": "encounter-diagnosis",
          "display": "Encounter Diagnosis"
        } ]
      } ],
      "code": {
        "coding": [ {
          "system": "http://snomed.info/sct",
          "version": "2021-09",
          "code": "111297002",
          "display": "Nonparalytic stroke (disorder)",
          "userSelected": true
        } ]
      },
      "subject": {
        "reference": "Patient/b1d0c606-661d-44e8-a25f-4e7ca8131f2a"
      },
      "recordedDate": "2026-10-13T08:00:00.000Z"
    },
    "request": {
      "method": "PUT",
      "url": "Condition/e78f498b-31d0-4a00-aaa4-732b9d2acd62"
    }
  }, {
    "fullUrl": "https://madie.cms.gov/Organization/f14badf1-7275-4454-8a10-7cf761baa00f",
    "resource": {
      "resourceType": "Organization",
      "id": "f14badf1-7275-4454-8a10-7cf761baa00f",
      "meta": {
        "profile": [ "http://hl7.org/fhir/us/qicore/StructureDefinition/qicore-organization" ]
      },
      "identifier": [ {
        "use": "temp",
        "system": "urn:oid:2.16.840.1.113883.4.4",
        "value": "21-3259825"
      } ],
      "active": true,
      "type": [ {
        "coding": [ {
          "system": "http://terminology.hl7.org/CodeSystem/organization-type",
          "code": "pay",
          "display": "Payer"
        } ]
      } ],
      "name": "Blue Cross Blue Shield of Texas",
      "telecom": [ {
        "system": "phone",
        "value": "(+1) 972-766-6900"
      } ],
      "address": [ {
        "use": "billing",
        "type": "postal",
        "line": [ "P.O. Box 660044" ],
        "city": "Dallas",
        "state": "TX",
        "postalCode": "75266-0044",
        "country": "USA"
      } ]
    },
    "request": {
      "method": "PUT",
      "url": "Organization/f14badf1-7275-4454-8a10-7cf761baa00f"
    }
  }, {
    "fullUrl": "https://madie.cms.gov/Practitioner/b28bf1ba-ad0c-4194-9ec6-8538bc3aae49",
    "resource": {
      "resourceType": "Practitioner",
      "id": "b28bf1ba-ad0c-4194-9ec6-8538bc3aae49",
      "meta": {
        "profile": [ "http://hl7.org/fhir/us/qicore/StructureDefinition/qicore-practitioner" ]
      },
      "identifier": [ {
        "system": "http://hl7.org/fhir/sid/us-npi",
        "value": "9999999896"
      } ],
      "name": [ {
        "family": "Evil",
        "prefix": [ "Dr" ]
      } ]
    },
    "request": {
      "method": "PUT",
      "url": "Practitioner/b28bf1ba-ad0c-4194-9ec6-8538bc3aae49"
    }
  }, {
    "fullUrl": "https://madie.cms.gov/MeasureReport/16100fda-3e62-426e-b8de-f3e8938a5b33",
    "resource": {
      "resourceType": "MeasureReport",
      "id": "16100fda-3e62-426e-b8de-f3e8938a5b33",
      "meta": {
        "profile": [ "http://hl7.org/fhir/us/cqfmeasures/StructureDefinition/test-case-cqfm" ]
      },
      "contained": [ {
        "resourceType": "Parameters",
        "id": "38fb9e9f-0899-462a-86a8-428b7ee186a4-parameters",
        "parameter": [ {
          "name": "subject",
          "valueString": "b1d0c606-661d-44e8-a25f-4e7ca8131f2a"
        } ]
      } ],
      "extension": [ {
        "url": "http://hl7.org/fhir/StructureDefinition/cqf-inputParameters",
        "valueReference": {
          "reference": "#38fb9e9f-0899-462a-86a8-428b7ee186a4-parameters"
        }
      }, {
        "url": "http://hl7.org/fhir/us/cqfmeasures/StructureDefinition/cqfm-testCaseDescription",
        "valueMarkdown": "Patient receives CMO during inpatient encounter. ED ends 61 minutes before Obs start, Obs ends 61 min before inpatient encounter start. Testing HospitalizationWithObservation function.\n"
      } ],
      "modifierExtension": [ {
        "url": "http://hl7.org/fhir/us/cqfmeasures/StructureDefinition/cqfm-isTestCase",
        "valueBoolean": true
      } ],
      "status": "complete",
      "type": "individual",
      "measure": "https://madie.cms.gov/Measure/CMS71FHIRSTKAnticoagAFFlutter",
      "period": {
        "start": "2026-01-01",
        "end": "2026-12-31"
      },
      "group": [ {
        "id": "Group_1",
        "population": [ {
          "id": "InitialPopulation_1",
          "code": {
            "coding": [ {
              "system": "http://terminology.hl7.org/CodeSystem/measure-population",
              "code": "initial-population",
              "display": "Initial Population"
            } ]
          },
          "count": 1
        }, {
          "id": "Denominator_1",
          "code": {
            "coding": [ {
              "system": "http://terminology.hl7.org/CodeSystem/measure-population",
              "code": "denominator",
              "display": "Denominator"
            } ]
          },
          "count": 1
        }, {
          "id": "DenominatorExclusion_1",
          "code": {
            "coding": [ {
              "system": "http://terminology.hl7.org/CodeSystem/measure-population",
              "code": "denominator-exclusion",
              "display": "Denominator Exclusion"
            } ]
          },
          "count": 1
        }, {
          "id": "Numerator_1",
          "code": {
            "coding": [ {
              "system": "http://terminology.hl7.org/CodeSystem/measure-population",
              "code": "numerator",
              "display": "Numerator"
            } ]
          },
          "count": 0
        }, {
          "id": "DenominatorException_1",
          "code": {
            "coding": [ {
              "system": "http://terminology.hl7.org/CodeSystem/measure-population",
              "code": "denominator-exception",
              "display": "Denominator Exception"
            } ]
          },
          "count": 0
        } ],
        "measureScore": {
          "value": 0.0
        }
      } ],
      "evaluatedResource": [ {
        "reference": "Patient/b1d0c606-661d-44e8-a25f-4e7ca8131f2a"
      }, {
        "reference": "Condition/39e391ef-2771-48b9-84cf-9f51c93553e3"
      }, {
        "reference": "Encounter/2f34e455-df60-4724-a8fb-748227e8dc3b"
      }, {
        "reference": "Encounter/8c3c44ef-4753-4e3c-9e9a-1f53104f7a72"
      }, {
        "reference": "Encounter/694facd2-4970-4d8c-9f94-02865f4ad7b5"
      }, {
        "reference": "Claim/44509823-ed08-4bba-a0fb-296957ef6fe9"
      }, {
        "reference": "ServiceRequest/e719e6fa-4621-467b-911d-58c18f37e8fe"
      }, {
        "reference": "Coverage/7d1191b8-cf58-44c9-b860-cd14f9b82823"
      }, {
        "reference": "Condition/e78f498b-31d0-4a00-aaa4-732b9d2acd62"
      }, {
        "reference": "Organization/f14badf1-7275-4454-8a10-7cf761baa00f"
      }, {
        "reference": "Practitioner/b28bf1ba-ad0c-4194-9ec6-8538bc3aae49"
      } ]
    },
    "request": {
      "method": "PUT",
      "url": "MeasureReport/16100fda-3e62-426e-b8de-f3e8938a5b33"
    }
  } ]
}