{
  "resourceType": "Bundle",
  "id": "633c9d030968f8012250fc8c",
  "type": "transaction",
  "entry": [ {
    "fullUrl": "https://madie.cms.gov/Patient/595ebfd1-fe6a-4b4b-96a1-23a72f6a70da",
    "resource": {
      "resourceType": "Patient",
      "id": "595ebfd1-fe6a-4b4b-96a1-23a72f6a70da",
      "meta": {
        "profile": [ "http://hl7.org/fhir/us/qicore/StructureDefinition/qicore-patient" ]
      },
      "text": {
        "status": "generated",
        "div": "<div xmlns=\"http://www.w3.org/1999/xhtml\"><div class=\"hapiHeaderText\">MedDCPatRefDuringEncInp <b>DENEXCEPPASS </b></div><table class=\"hapiPropertyTable\"><tbody><tr><td>Identifier</td><td>0c63b215784ea7e3383559263b15cd7e</td></tr><tr><td>Date of birth</td><td><span>23 May 1954</span></td></tr></tbody></table></div>"
      },
      "extension": [ {
        "url": "http://hl7.org/fhir/us/core/StructureDefinition/us-core-race",
        "extension": [ {
          "url": "ombCategory",
          "valueCoding": {
            "system": "urn:oid:2.16.840.1.113883.6.238",
            "code": "1002-5",
            "display": "American Indian or Alaska Native",
            "userSelected": true
          }
        }, {
          "url": "text",
          "valueString": "American Indian or Alaska Native"
        } ]
      }, {
        "url": "http://hl7.org/fhir/us/core/StructureDefinition/us-core-ethnicity",
        "extension": [ {
          "url": "ombCategory",
          "valueCoding": {
            "system": "urn:oid:2.16.840.1.113883.6.238",
            "code": "2135-2",
            "display": "Hispanic or Latino",
            "userSelected": true
          }
        }, {
          "url": "text",
          "valueString": "Hispanic or Latino"
        } ]
      } ],
      "identifier": [ {
        "type": {
          "coding": [ {
            "system": "http://terminology.hl7.org/CodeSystem/v2-0203",
            "code": "MR"
          } ]
        },
        "system": "https://bonnie-fhir.healthit.gov/",
        "value": "633c9d030968f8012250fc8c"
      } ],
      "active": true,
      "name": [ {
        "use": "usual",
        "family": "DENEXCEPPass",
        "given": [ "MedDCPatRefDuringEncInp" ]
      } ],
      "gender": "female",
      "birthDate": "1955-05-23"
    },
    "request": {
      "method": "PUT",
      "url": "Patient/595ebfd1-fe6a-4b4b-96a1-23a72f6a70da"
    }
  }, {
    "fullUrl": "https://madie.cms.gov/Encounter/c88978b5-6687-474d-852d-e73056f436ea",
    "resource": {
      "resourceType": "Encounter",
      "id": "c88978b5-6687-474d-852d-e73056f436ea",
      "meta": {
        "profile": [ "http://hl7.org/fhir/us/qicore/StructureDefinition/qicore-encounter" ]
      },
      "status": "finished",
      "class": {
        "system": "http://terminology.hl7.org/CodeSystem/v3-ActCode",
        "code": "IMP",
        "display": "inpatient encounter"
      },
      "type": [ {
        "coding": [ {
          "system": "http://snomed.info/sct",
          "code": "32485007"
        } ]
      } ],
      "subject": {
        "reference": "Patient/595ebfd1-fe6a-4b4b-96a1-23a72f6a70da"
      },
      "period": {
        "start": "2026-11-20T08:00:00.000Z",
        "end": "2026-11-24T08:15:00.000Z"
      },
      "length": {
        "value": 4,
        "unit": "days"
      },
      "reasonReference": [ {
        "reference": "Condition/cf177b53-5788-4860-9806-4a443c5689d6"
      } ]
    },
    "request": {
      "method": "PUT",
      "url": "Encounter/c88978b5-6687-474d-852d-e73056f436ea"
    }
  }, {
    "fullUrl": "https://madie.cms.gov/Claim/ee9868c9-fb6c-4358-9fe1-77c78408508f",
    "resource": {
      "resourceType": "Claim",
      "id": "ee9868c9-fb6c-4358-9fe1-77c78408508f",
      "meta": {
        "profile": [ "http://hl7.org/fhir/us/qicore/StructureDefinition/qicore-claim" ]
      },
      "status": "active",
      "type": {
        "coding": [ {
          "system": "http://terminology.hl7.org/CodeSystem/claim-type",
          "code": "institutional"
        } ]
      },
      "use": "claim",
      "patient": {
        "reference": "Patient/595ebfd1-fe6a-4b4b-96a1-23a72f6a70da"
      },
      "created": "2026-12-01",
      "provider": {
        "reference": "Practitioner/practitioner-123456"
      },
      "priority": {
        "coding": [ {
          "system": "http://terminology.hl7.org/CodeSystem/processpriority",
          "code": "normal"
        } ]
      },
      "diagnosis": [ {
        "sequence": 1,
        "diagnosisCodeableConcept": {
          "coding": [ {
            "system": "http://hl7.org/fhir/sid/icd-10-cm",
            "code": "I63.00"
          } ]
        },
        "type": [ {
          "coding": [ {
            "system": "http://terminology.hl7.org/CodeSystem/ex-diagnosistype",
            "code": "principal"
          } ]
        } ]
      } ],
      "insurance": [ {
        "sequence": 1,
        "focal": true,
        "coverage": {
          "reference": "Coverage/5fa041661c76ba66d9959367"
        }
      } ],
      "item": [ {
        "sequence": 1,
        "diagnosisSequence": [ 1 ],
        "productOrService": {
          "coding": [ {
            "system": "http://terminology.hl7.org/CodeSystem/ex-USCLS",
            "code": "99555"
          } ]
        },
        "encounter": [ {
          "reference": "Encounter/c88978b5-6687-474d-852d-e73056f436ea"
        } ]
      } ]
    },
    "request": {
      "method": "PUT",
      "url": "Claim/ee9868c9-fb6c-4358-9fe1-77c78408508f"
    }
  }, {
    "fullUrl": "https://madie.cms.gov/MedicationRequest/d14cfd0b-9c42-4f9e-8229-19647bb81665",
    "resource": {
      "resourceType": "MedicationRequest",
      "id": "d14cfd0b-9c42-4f9e-8229-19647bb81665",
      "meta": {
        "profile": [ "http://hl7.org/fhir/us/qicore/StructureDefinition/qicore-medicationnotrequested" ]
      },
      "status": "completed",
      "intent": "order",
      "category": [ {
        "coding": [ {
          "system": "http://terminology.hl7.org/CodeSystem/medicationrequest-category",
          "code": "community"
        } ]
      } ],
      "doNotPerform": true,
      "medicationCodeableConcept": {
        "coding": [ {
          "system": "http://www.nlm.nih.gov/research/umls/rxnorm",
          "code": "308351"
        } ]
      },
      "subject": {
        "reference": "Patient/595ebfd1-fe6a-4b4b-96a1-23a72f6a70da"
      },
      "authoredOn": "2026-11-24T08:10:00.000Z",
      "requester": {
        "reference": "Practitioner/example"
      },
      "reasonCode": [ {
        "coding": [ {
          "system": "http://snomed.info/sct",
          "code": "443390004"
        } ]
      } ]
    },
    "request": {
      "method": "PUT",
      "url": "MedicationRequest/d14cfd0b-9c42-4f9e-8229-19647bb81665"
    }
  }, {
    "fullUrl": "https://madie.cms.gov/Coverage/707b10b4-93ea-4633-be0b-ffe68c247070",
    "resource": {
      "resourceType": "Coverage",
      "id": "707b10b4-93ea-4633-be0b-ffe68c247070",
      "meta": {
        "profile": [ "http://hl7.org/fhir/us/qicore/StructureDefinition/qicore-coverage" ]
      },
      "status": "active",
      "subscriberId": "523435",
      "beneficiary": {
        "reference": "Patient/595ebfd1-fe6a-4b4b-96a1-23a72f6a70da"
      },
      "relationship": {
        "coding": [ {
          "system": "http://terminology.hl7.org/CodeSystem/subscriber-relationship",
          "code": "self"
        } ]
      },
      "payor": [ {
        "reference": "Organization/9bfb7db7-6676-4a7d-a11d-019928bde65f"
      } ]
    },
    "request": {
      "method": "PUT",
      "url": "Coverage/707b10b4-93ea-4633-be0b-ffe68c247070"
    }
  }, {
    "fullUrl": "https://madie.cms.gov/Procedure/2e9d76d5-f09e-40ab-bcb9-bc905a585667",
    "resource": {
      "resourceType": "Procedure",
      "id": "2e9d76d5-f09e-40ab-bcb9-bc905a585667",
      "meta": {
        "profile": [ "http://hl7.org/fhir/us/qicore/StructureDefinition/qicore-procedure" ]
      },
      "extension": [ {
        "url": "http://hl7.org/fhir/us/qicore/StructureDefinition/qicore-recorded",
        "valueDateTime": "2014-04-05T13:35:00.000Z"
      } ],
      "status": "completed",
      "code": {
        "coding": [ {
          "system": "http://www.cms.gov/Medicare/Coding/ICD10",
          "code": "02560ZZ"
        }, {
          "system": "http://snomed.info/sct",
          "code": "175095005"
        } ]
      },
      "subject": {
        "reference": "Patient/595ebfd1-fe6a-4b4b-96a1-23a72f6a70da"
      },
      "performedPeriod": {
        "start": "2026-11-20T06:00:00.000Z",
        "end": "2026-11-20T07:15:00.000Z"
      }
    },
    "request": {
      "method": "PUT",
      "url": "Procedure/2e9d76d5-f09e-40ab-bcb9-bc905a585667"
    }
  }, {
    "fullUrl": "https://madie.cms.gov/Condition/cf177b53-5788-4860-9806-4a443c5689d6",
    "resource": {
      "resourceType": "Condition",
      "id": "cf177b53-5788-4860-9806-4a443c5689d6",
      "meta": {
        "profile": [ "http://hl7.org/fhir/us/qicore/StructureDefinition/qicore-condition-encounter-diagnosis" ]
      },
      "clinicalStatus": {
        "coding": [ {
          "system": "http://terminology.hl7.org/CodeSystem/condition-clinical",
          "code": "active"
        } ]
      },
      "verificationStatus": {
        "coding": [ {
          "system": "http://terminology.hl7.org/CodeSystem/condition-ver-status",
          "code": "confirmed"
        } ]
      },
      "category": [ {
        "coding": [ {
          "system": "http://terminology.hl7.org/CodeSystem/condition-category",
          "code": "encounter-diagnosis",
          "display": "Encounter Diagnosis"
        } ]
      } ],
      "code": {
        "coding": [ {
          "system": "http://snomed.info/sct",
          "version": "2021-09",
          "code": "111297002",
          "display": "Nonparalytic stroke (disorder)",
          "userSelected": true
        } ]
      },
      "subject": {
        "reference": "Patient/595ebfd1-fe6a-4b4b-96a1-23a72f6a70da"
      },
      "recordedDate": "2026-10-13T08:00:00.000Z"
    },
    "request": {
      "method": "PUT",
      "url": "Condition/cf177b53-5788-4860-9806-4a443c5689d6"
    }
  }, {
    "fullUrl": "https://madie.cms.gov/Organization/9bfb7db7-6676-4a7d-a11d-019928bde65f",
    "resource": {
      "resourceType": "Organization",
      "id": "9bfb7db7-6676-4a7d-a11d-019928bde65f",
      "meta": {
        "profile": [ "http://hl7.org/fhir/us/qicore/StructureDefinition/qicore-organization" ]
      },
      "identifier": [ {
        "use": "temp",
        "system": "urn:oid:2.16.840.1.113883.4.4",
        "value": "21-3259825"
      } ],
      "active": true,
      "type": [ {
        "coding": [ {
          "system": "http://terminology.hl7.org/CodeSystem/organization-type",
          "code": "pay",
          "display": "Payer"
        } ]
      } ],
      "name": "Blue Cross Blue Shield of Texas",
      "telecom": [ {
        "system": "phone",
        "value": "(+1) 972-766-6900"
      } ],
      "address": [ {
        "use": "billing",
        "type": "postal",
        "line": [ "P.O. Box 660044" ],
        "city": "Dallas",
        "state": "TX",
        "postalCode": "75266-0044",
        "country": "USA"
      } ]
    },
    "request": {
      "method": "PUT",
      "url": "Organization/9bfb7db7-6676-4a7d-a11d-019928bde65f"
    }
  }, {
    "fullUrl": "https://madie.cms.gov/MeasureReport/793a4c67-2bc9-4601-9521-999a2628ffdd",
    "resource": {
      "resourceType": "MeasureReport",
      "id": "793a4c67-2bc9-4601-9521-999a2628ffdd",
      "meta": {
        "profile": [ "http://hl7.org/fhir/us/cqfmeasures/StructureDefinition/test-case-cqfm" ]
      },
      "contained": [ {
        "resourceType": "Parameters",
        "id": "9578b5c6-cdd3-4aa5-bcfa-5fd2c2a7677c-parameters",
        "parameter": [ {
          "name": "subject",
          "valueString": "595ebfd1-fe6a-4b4b-96a1-23a72f6a70da"
        } ]
      } ],
      "extension": [ {
        "url": "http://hl7.org/fhir/StructureDefinition/cqf-inputParameters",
        "valueReference": {
          "reference": "#9578b5c6-cdd3-4aa5-bcfa-5fd2c2a7677c-parameters"
        }
      }, {
        "url": "http://hl7.org/fhir/us/cqfmeasures/StructureDefinition/cqfm-testCaseDescription",
        "valueMarkdown": "Patient did not receive anticoagulant, patient refused\n"
      } ],
      "modifierExtension": [ {
        "url": "http://hl7.org/fhir/us/cqfmeasures/StructureDefinition/cqfm-isTestCase",
        "valueBoolean": true
      } ],
      "status": "complete",
      "type": "individual",
      "measure": "https://madie.cms.gov/Measure/CMS71FHIRSTKAnticoagAFFlutter",
      "period": {
        "start": "2026-01-01",
        "end": "2026-12-31"
      },
      "group": [ {
        "id": "Group_1",
        "population": [ {
          "id": "InitialPopulation_1",
          "code": {
            "coding": [ {
              "system": "http://terminology.hl7.org/CodeSystem/measure-population",
              "code": "initial-population",
              "display": "Initial Population"
            } ]
          },
          "count": 1
        }, {
          "id": "Denominator_1",
          "code": {
            "coding": [ {
              "system": "http://terminology.hl7.org/CodeSystem/measure-population",
              "code": "denominator",
              "display": "Denominator"
            } ]
          },
          "count": 1
        }, {
          "id": "DenominatorExclusion_1",
          "code": {
            "coding": [ {
              "system": "http://terminology.hl7.org/CodeSystem/measure-population",
              "code": "denominator-exclusion",
              "display": "Denominator Exclusion"
            } ]
          },
          "count": 0
        }, {
          "id": "Numerator_1",
          "code": {
            "coding": [ {
              "system": "http://terminology.hl7.org/CodeSystem/measure-population",
              "code": "numerator",
              "display": "Numerator"
            } ]
          },
          "count": 0
        }, {
          "id": "DenominatorException_1",
          "code": {
            "coding": [ {
              "system": "http://terminology.hl7.org/CodeSystem/measure-population",
              "code": "denominator-exception",
              "display": "Denominator Exception"
            } ]
          },
          "count": 1
        } ],
        "measureScore": {
          "value": 0.0
        }
      } ],
      "evaluatedResource": [ {
        "reference": "Patient/595ebfd1-fe6a-4b4b-96a1-23a72f6a70da"
      }, {
        "reference": "Encounter/c88978b5-6687-474d-852d-e73056f436ea"
      }, {
        "reference": "Claim/ee9868c9-fb6c-4358-9fe1-77c78408508f"
      }, {
        "reference": "MedicationRequest/d14cfd0b-9c42-4f9e-8229-19647bb81665"
      }, {
        "reference": "Coverage/707b10b4-93ea-4633-be0b-ffe68c247070"
      }, {
        "reference": "Procedure/2e9d76d5-f09e-40ab-bcb9-bc905a585667"
      }, {
        "reference": "Condition/cf177b53-5788-4860-9806-4a443c5689d6"
      }, {
        "reference": "Organization/9bfb7db7-6676-4a7d-a11d-019928bde65f"
      } ]
    },
    "request": {
      "method": "PUT",
      "url": "MeasureReport/793a4c67-2bc9-4601-9521-999a2628ffdd"
    }
  } ]
}