{
  "resourceType": "Bundle",
  "id": "633c9d020968f8012250fc64",
  "type": "transaction",
  "entry": [ {
    "fullUrl": "https://madie.cms.gov/Patient/02ee41e8-26d8-4575-a999-32ee2204d745",
    "resource": {
      "resourceType": "Patient",
      "id": "02ee41e8-26d8-4575-a999-32ee2204d745",
      "meta": {
        "profile": [ "http://hl7.org/fhir/us/qicore/StructureDefinition/qicore-patient" ]
      },
      "text": {
        "status": "generated",
        "div": "<div xmlns=\"http://www.w3.org/1999/xhtml\"><div class=\"hapiHeaderText\">AMA <b>DENEXPASS </b></div><table class=\"hapiPropertyTable\"><tbody><tr><td>Identifier</td><td>b38296647323cdc7f628f752ac1b84d0</td></tr><tr><td>Date of birth</td><td><span>31 July 1969</span></td></tr></tbody></table></div>"
      },
      "extension": [ {
        "url": "http://hl7.org/fhir/us/core/StructureDefinition/us-core-race",
        "extension": [ {
          "url": "ombCategory",
          "valueCoding": {
            "system": "urn:oid:2.16.840.1.113883.6.238",
            "code": "1002-5",
            "display": "American Indian or Alaska Native",
            "userSelected": true
          }
        }, {
          "url": "text",
          "valueString": "American Indian or Alaska Native"
        } ]
      }, {
        "url": "http://hl7.org/fhir/us/core/StructureDefinition/us-core-ethnicity",
        "extension": [ {
          "url": "ombCategory",
          "valueCoding": {
            "system": "urn:oid:2.16.840.1.113883.6.238",
            "code": "2135-2",
            "display": "Hispanic or Latino",
            "userSelected": true
          }
        }, {
          "url": "text",
          "valueString": "Hispanic or Latino"
        } ]
      } ],
      "identifier": [ {
        "type": {
          "coding": [ {
            "system": "http://terminology.hl7.org/CodeSystem/v2-0203",
            "code": "MR"
          } ]
        },
        "system": "https://bonnie-fhir.healthit.gov/",
        "value": "633c9d020968f8012250fc64"
      } ],
      "active": true,
      "name": [ {
        "use": "usual",
        "family": "DENEXPass",
        "given": [ "AMA" ]
      } ],
      "gender": "male",
      "birthDate": "1970-07-31"
    },
    "request": {
      "method": "PUT",
      "url": "Patient/02ee41e8-26d8-4575-a999-32ee2204d745"
    }
  }, {
    "fullUrl": "https://madie.cms.gov/Encounter/1b98aa13-9b55-480f-9246-cd41a1dc40b3",
    "resource": {
      "resourceType": "Encounter",
      "id": "1b98aa13-9b55-480f-9246-cd41a1dc40b3",
      "meta": {
        "profile": [ "http://hl7.org/fhir/us/qicore/StructureDefinition/qicore-encounter" ]
      },
      "status": "finished",
      "class": {
        "system": "http://terminology.hl7.org/CodeSystem/v3-ActCode",
        "code": "IMP",
        "display": "inpatient encounter"
      },
      "type": [ {
        "coding": [ {
          "system": "http://snomed.info/sct",
          "code": "32485007"
        } ]
      } ],
      "subject": {
        "reference": "Patient/02ee41e8-26d8-4575-a999-32ee2204d745"
      },
      "period": {
        "start": "2026-11-20T08:00:00.000Z",
        "end": "2026-11-24T08:15:00.000Z"
      },
      "length": {
        "value": 4,
        "unit": "days"
      },
      "reasonReference": [ {
        "reference": "Condition/e3d0afbe-d577-4cf5-b47b-44d8cb45cfca"
      } ],
      "hospitalization": {
        "dischargeDisposition": {
          "coding": [ {
            "system": "http://snomed.info/sct",
            "code": "445060000",
            "display": "Left Against Medical Advice"
          } ]
        }
      }
    },
    "request": {
      "method": "PUT",
      "url": "Encounter/1b98aa13-9b55-480f-9246-cd41a1dc40b3"
    }
  }, {
    "fullUrl": "https://madie.cms.gov/Claim/fbe557bd-85c2-42d6-bc87-7f08d64f624a",
    "resource": {
      "resourceType": "Claim",
      "id": "fbe557bd-85c2-42d6-bc87-7f08d64f624a",
      "meta": {
        "profile": [ "http://hl7.org/fhir/us/qicore/StructureDefinition/qicore-claim" ]
      },
      "status": "active",
      "type": {
        "coding": [ {
          "system": "http://terminology.hl7.org/CodeSystem/claim-type",
          "code": "institutional"
        } ]
      },
      "use": "claim",
      "patient": {
        "reference": "Patient/02ee41e8-26d8-4575-a999-32ee2204d745"
      },
      "created": "2026-12-01",
      "provider": {
        "reference": "Practitioner/d992c89e-5647-4b47-a30f-7cf7d385e8f8"
      },
      "priority": {
        "coding": [ {
          "system": "http://terminology.hl7.org/CodeSystem/processpriority",
          "code": "normal"
        } ]
      },
      "diagnosis": [ {
        "sequence": 1,
        "diagnosisCodeableConcept": {
          "coding": [ {
            "system": "http://hl7.org/fhir/sid/icd-10-cm",
            "code": "I63.00"
          } ]
        },
        "type": [ {
          "coding": [ {
            "system": "http://terminology.hl7.org/CodeSystem/ex-diagnosistype",
            "code": "principal"
          } ]
        } ]
      } ],
      "insurance": [ {
        "sequence": 1,
        "focal": true,
        "coverage": {
          "reference": "Coverage/5c953f97b848462de0ae40d7"
        }
      } ],
      "item": [ {
        "sequence": 1,
        "diagnosisSequence": [ 1 ],
        "productOrService": {
          "coding": [ {
            "system": "http://terminology.hl7.org/CodeSystem/ex-USCLS",
            "code": "99555"
          } ]
        },
        "encounter": [ {
          "reference": "Encounter/1b98aa13-9b55-480f-9246-cd41a1dc40b3"
        } ]
      } ]
    },
    "request": {
      "method": "PUT",
      "url": "Claim/fbe557bd-85c2-42d6-bc87-7f08d64f624a"
    }
  }, {
    "fullUrl": "https://madie.cms.gov/Coverage/1fd3fa02-8ad0-42a8-93e9-c0be5174b120",
    "resource": {
      "resourceType": "Coverage",
      "id": "1fd3fa02-8ad0-42a8-93e9-c0be5174b120",
      "meta": {
        "profile": [ "http://hl7.org/fhir/us/qicore/StructureDefinition/qicore-coverage" ]
      },
      "status": "active",
      "subscriberId": "523435",
      "beneficiary": {
        "reference": "Patient/02ee41e8-26d8-4575-a999-32ee2204d745"
      },
      "relationship": {
        "coding": [ {
          "system": "http://terminology.hl7.org/CodeSystem/subscriber-relationship",
          "code": "self"
        } ]
      },
      "payor": [ {
        "reference": "Organization/8681e1b0-4b93-4394-84a2-d1994cc4a184"
      } ]
    },
    "request": {
      "method": "PUT",
      "url": "Coverage/1fd3fa02-8ad0-42a8-93e9-c0be5174b120"
    }
  }, {
    "fullUrl": "https://madie.cms.gov/Procedure/6bdb4061-5ca8-4d0a-a20b-74b456fce634",
    "resource": {
      "resourceType": "Procedure",
      "id": "6bdb4061-5ca8-4d0a-a20b-74b456fce634",
      "meta": {
        "profile": [ "http://hl7.org/fhir/us/qicore/StructureDefinition/qicore-procedure" ]
      },
      "extension": [ {
        "url": "http://hl7.org/fhir/us/qicore/StructureDefinition/qicore-recorded",
        "valueDateTime": "2026-11-19T13:35:00.000Z"
      } ],
      "status": "completed",
      "code": {
        "coding": [ {
          "system": "http://www.cms.gov/Medicare/Coding/ICD10",
          "code": "02560ZZ"
        }, {
          "system": "http://snomed.info/sct",
          "code": "175095005"
        } ]
      },
      "subject": {
        "reference": "Patient/02ee41e8-26d8-4575-a999-32ee2204d745"
      },
      "performedPeriod": {
        "start": "2026-11-19T08:00:00.000Z",
        "end": "2026-11-20T08:15:00.000Z"
      }
    },
    "request": {
      "method": "PUT",
      "url": "Procedure/6bdb4061-5ca8-4d0a-a20b-74b456fce634"
    }
  }, {
    "fullUrl": "https://madie.cms.gov/Condition/e3d0afbe-d577-4cf5-b47b-44d8cb45cfca",
    "resource": {
      "resourceType": "Condition",
      "id": "e3d0afbe-d577-4cf5-b47b-44d8cb45cfca",
      "meta": {
        "profile": [ "http://hl7.org/fhir/us/qicore/StructureDefinition/qicore-condition-encounter-diagnosis" ]
      },
      "clinicalStatus": {
        "coding": [ {
          "system": "http://terminology.hl7.org/CodeSystem/condition-clinical",
          "code": "active"
        } ]
      },
      "verificationStatus": {
        "coding": [ {
          "system": "http://terminology.hl7.org/CodeSystem/condition-ver-status",
          "code": "confirmed"
        } ]
      },
      "category": [ {
        "coding": [ {
          "system": "http://terminology.hl7.org/CodeSystem/condition-category",
          "code": "encounter-diagnosis",
          "display": "Encounter Diagnosis"
        } ]
      } ],
      "code": {
        "coding": [ {
          "system": "http://snomed.info/sct",
          "version": "2021-09",
          "code": "111297002",
          "display": "Nonparalytic stroke (disorder)",
          "userSelected": true
        } ]
      },
      "subject": {
        "reference": "Patient/02ee41e8-26d8-4575-a999-32ee2204d745"
      },
      "recordedDate": "2026-10-04T08:00:00.000Z"
    },
    "request": {
      "method": "PUT",
      "url": "Condition/e3d0afbe-d577-4cf5-b47b-44d8cb45cfca"
    }
  }, {
    "fullUrl": "https://madie.cms.gov/Organization/8681e1b0-4b93-4394-84a2-d1994cc4a184",
    "resource": {
      "resourceType": "Organization",
      "id": "8681e1b0-4b93-4394-84a2-d1994cc4a184",
      "meta": {
        "profile": [ "http://hl7.org/fhir/us/qicore/StructureDefinition/qicore-organization" ]
      },
      "identifier": [ {
        "use": "temp",
        "system": "urn:oid:2.16.840.1.113883.4.4",
        "value": "21-3259825"
      } ],
      "active": true,
      "type": [ {
        "coding": [ {
          "system": "http://terminology.hl7.org/CodeSystem/organization-type",
          "code": "pay",
          "display": "Payer"
        } ]
      } ],
      "name": "Blue Cross Blue Shield of Texas",
      "telecom": [ {
        "system": "phone",
        "value": "(+1) 972-766-6900"
      } ],
      "address": [ {
        "use": "billing",
        "type": "postal",
        "line": [ "P.O. Box 660044" ],
        "city": "Dallas",
        "state": "TX",
        "postalCode": "75266-0044",
        "country": "USA"
      } ]
    },
    "request": {
      "method": "PUT",
      "url": "Organization/8681e1b0-4b93-4394-84a2-d1994cc4a184"
    }
  }, {
    "fullUrl": "https://madie.cms.gov/Practitioner/d992c89e-5647-4b47-a30f-7cf7d385e8f8",
    "resource": {
      "resourceType": "Practitioner",
      "id": "d992c89e-5647-4b47-a30f-7cf7d385e8f8",
      "meta": {
        "profile": [ "http://hl7.org/fhir/us/qicore/StructureDefinition/qicore-practitioner" ]
      },
      "identifier": [ {
        "system": "http://hl7.org/fhir/sid/us-npi",
        "value": "9999999896"
      } ],
      "name": [ {
        "family": "Evil",
        "prefix": [ "Dr" ]
      } ]
    },
    "request": {
      "method": "PUT",
      "url": "Practitioner/d992c89e-5647-4b47-a30f-7cf7d385e8f8"
    }
  }, {
    "fullUrl": "https://madie.cms.gov/MeasureReport/026b5632-b1d6-4faf-a2a3-d259531f2508",
    "resource": {
      "resourceType": "MeasureReport",
      "id": "026b5632-b1d6-4faf-a2a3-d259531f2508",
      "meta": {
        "profile": [ "http://hl7.org/fhir/us/cqfmeasures/StructureDefinition/test-case-cqfm" ]
      },
      "contained": [ {
        "resourceType": "Parameters",
        "id": "c2bfd11c-6bdc-4956-84b1-258e9d2a8ad4-parameters",
        "parameter": [ {
          "name": "subject",
          "valueString": "02ee41e8-26d8-4575-a999-32ee2204d745"
        } ]
      } ],
      "extension": [ {
        "url": "http://hl7.org/fhir/StructureDefinition/cqf-inputParameters",
        "valueReference": {
          "reference": "#c2bfd11c-6bdc-4956-84b1-258e9d2a8ad4-parameters"
        }
      }, {
        "url": "http://hl7.org/fhir/us/cqfmeasures/StructureDefinition/cqfm-testCaseDescription",
        "valueMarkdown": "Patient left AMA, so meets denominator exclusion criteria. \n"
      } ],
      "modifierExtension": [ {
        "url": "http://hl7.org/fhir/us/cqfmeasures/StructureDefinition/cqfm-isTestCase",
        "valueBoolean": true
      } ],
      "status": "complete",
      "type": "individual",
      "measure": "https://madie.cms.gov/Measure/CMS71FHIRSTKAnticoagAFFlutter",
      "period": {
        "start": "2026-01-01",
        "end": "2026-12-31"
      },
      "group": [ {
        "id": "Group_1",
        "population": [ {
          "id": "InitialPopulation_1",
          "code": {
            "coding": [ {
              "system": "http://terminology.hl7.org/CodeSystem/measure-population",
              "code": "initial-population",
              "display": "Initial Population"
            } ]
          },
          "count": 1
        }, {
          "id": "Denominator_1",
          "code": {
            "coding": [ {
              "system": "http://terminology.hl7.org/CodeSystem/measure-population",
              "code": "denominator",
              "display": "Denominator"
            } ]
          },
          "count": 1
        }, {
          "id": "DenominatorExclusion_1",
          "code": {
            "coding": [ {
              "system": "http://terminology.hl7.org/CodeSystem/measure-population",
              "code": "denominator-exclusion",
              "display": "Denominator Exclusion"
            } ]
          },
          "count": 1
        }, {
          "id": "Numerator_1",
          "code": {
            "coding": [ {
              "system": "http://terminology.hl7.org/CodeSystem/measure-population",
              "code": "numerator",
              "display": "Numerator"
            } ]
          },
          "count": 0
        }, {
          "id": "DenominatorException_1",
          "code": {
            "coding": [ {
              "system": "http://terminology.hl7.org/CodeSystem/measure-population",
              "code": "denominator-exception",
              "display": "Denominator Exception"
            } ]
          },
          "count": 0
        } ],
        "measureScore": {
          "value": 0.0
        }
      } ],
      "evaluatedResource": [ {
        "reference": "Patient/02ee41e8-26d8-4575-a999-32ee2204d745"
      }, {
        "reference": "Encounter/1b98aa13-9b55-480f-9246-cd41a1dc40b3"
      }, {
        "reference": "Claim/fbe557bd-85c2-42d6-bc87-7f08d64f624a"
      }, {
        "reference": "Coverage/1fd3fa02-8ad0-42a8-93e9-c0be5174b120"
      }, {
        "reference": "Procedure/6bdb4061-5ca8-4d0a-a20b-74b456fce634"
      }, {
        "reference": "Condition/e3d0afbe-d577-4cf5-b47b-44d8cb45cfca"
      }, {
        "reference": "Organization/8681e1b0-4b93-4394-84a2-d1994cc4a184"
      }, {
        "reference": "Practitioner/d992c89e-5647-4b47-a30f-7cf7d385e8f8"
      } ]
    },
    "request": {
      "method": "PUT",
      "url": "MeasureReport/026b5632-b1d6-4faf-a2a3-d259531f2508"
    }
  } ]
}