{
  "resourceType": "Bundle",
  "id": "633c9d030968f8012250fc97",
  "type": "transaction",
  "entry": [ {
    "fullUrl": "https://madie.cms.gov/Patient/ed792352-3bb4-435d-896a-d221df866142",
    "resource": {
      "resourceType": "Patient",
      "id": "ed792352-3bb4-435d-896a-d221df866142",
      "meta": {
        "profile": [ "http://hl7.org/fhir/us/qicore/StructureDefinition/qicore-patient" ]
      },
      "text": {
        "status": "generated",
        "div": "<div xmlns=\"http://www.w3.org/1999/xhtml\"><div class=\"hapiHeaderText\">AtrialAblAfterEncStartRelePer <b>DENOMFAIL </b></div><table class=\"hapiPropertyTable\"><tbody><tr><td>Identifier</td><td>0ab8a288462c493a0716bd9a93a37855</td></tr><tr><td>Date of birth</td><td><span>01 December 1960</span></td></tr></tbody></table></div>"
      },
      "extension": [ {
        "url": "http://hl7.org/fhir/us/core/StructureDefinition/us-core-race",
        "extension": [ {
          "url": "ombCategory",
          "valueCoding": {
            "system": "urn:oid:2.16.840.1.113883.6.238",
            "code": "1002-5",
            "display": "American Indian or Alaska Native",
            "userSelected": true
          }
        }, {
          "url": "text",
          "valueString": "American Indian or Alaska Native"
        } ]
      }, {
        "url": "http://hl7.org/fhir/us/core/StructureDefinition/us-core-ethnicity",
        "extension": [ {
          "url": "ombCategory",
          "valueCoding": {
            "system": "urn:oid:2.16.840.1.113883.6.238",
            "code": "2135-2",
            "display": "Hispanic or Latino",
            "userSelected": true
          }
        }, {
          "url": "text",
          "valueString": "Hispanic or Latino"
        } ]
      } ],
      "identifier": [ {
        "type": {
          "coding": [ {
            "system": "http://terminology.hl7.org/CodeSystem/v2-0203",
            "code": "MR"
          } ]
        },
        "system": "https://bonnie-fhir.healthit.gov/",
        "value": "633c9d030968f8012250fc97"
      } ],
      "active": true,
      "name": [ {
        "use": "usual",
        "family": "DENOMFail",
        "given": [ "AtrialAblAfterEncStartRelePer" ]
      } ],
      "gender": "male",
      "birthDate": "1961-12-01"
    },
    "request": {
      "method": "PUT",
      "url": "Patient/ed792352-3bb4-435d-896a-d221df866142"
    }
  }, {
    "fullUrl": "https://madie.cms.gov/Claim/505dd320-72d4-4e44-8aa8-1455e4078bf8",
    "resource": {
      "resourceType": "Claim",
      "id": "505dd320-72d4-4e44-8aa8-1455e4078bf8",
      "meta": {
        "profile": [ "http://hl7.org/fhir/us/qicore/StructureDefinition/qicore-claim" ]
      },
      "status": "active",
      "type": {
        "coding": [ {
          "system": "http://terminology.hl7.org/CodeSystem/claim-type",
          "code": "institutional"
        } ]
      },
      "use": "claim",
      "patient": {
        "reference": "Patient/ed792352-3bb4-435d-896a-d221df866142"
      },
      "created": "2026-12-01",
      "provider": {
        "reference": "Practitioner/e0b28671-7476-40b7-8fc8-2e66d785f5cc"
      },
      "priority": {
        "coding": [ {
          "system": "http://terminology.hl7.org/CodeSystem/processpriority",
          "code": "normal"
        } ]
      },
      "diagnosis": [ {
        "sequence": 1,
        "diagnosisCodeableConcept": {
          "coding": [ {
            "system": "http://hl7.org/fhir/sid/icd-10-cm",
            "code": "I63.00"
          } ]
        },
        "type": [ {
          "coding": [ {
            "system": "http://terminology.hl7.org/CodeSystem/ex-diagnosistype",
            "code": "principal"
          } ]
        } ]
      } ],
      "insurance": [ {
        "sequence": 1,
        "focal": true,
        "coverage": {
          "reference": "Coverage/5fa041661c76ba66d9959367"
        }
      } ],
      "item": [ {
        "sequence": 1,
        "diagnosisSequence": [ 1 ],
        "productOrService": {
          "coding": [ {
            "system": "http://terminology.hl7.org/CodeSystem/ex-USCLS",
            "code": "99555"
          } ]
        },
        "encounter": [ {
          "reference": "Encounter/48be6903-2d43-4e92-8d65-54ee8c8b8429"
        } ]
      } ]
    },
    "request": {
      "method": "PUT",
      "url": "Claim/505dd320-72d4-4e44-8aa8-1455e4078bf8"
    }
  }, {
    "fullUrl": "https://madie.cms.gov/Encounter/48be6903-2d43-4e92-8d65-54ee8c8b8429",
    "resource": {
      "resourceType": "Encounter",
      "id": "48be6903-2d43-4e92-8d65-54ee8c8b8429",
      "meta": {
        "profile": [ "http://hl7.org/fhir/us/qicore/StructureDefinition/qicore-encounter" ]
      },
      "status": "finished",
      "class": {
        "system": "http://terminology.hl7.org/CodeSystem/v3-ActCode",
        "code": "IMP",
        "display": "inpatient encounter"
      },
      "type": [ {
        "coding": [ {
          "system": "http://snomed.info/sct",
          "code": "32485007"
        } ]
      } ],
      "subject": {
        "reference": "Patient/ed792352-3bb4-435d-896a-d221df866142"
      },
      "period": {
        "start": "2026-02-08T08:00:00.000Z",
        "end": "2026-02-10T08:15:00.000Z"
      },
      "length": {
        "value": 2,
        "unit": "days"
      },
      "reasonReference": [ {
        "reference": "Condition/c0e8324d-7197-413e-8e7b-94ce73dfcfc4"
      } ]
    },
    "request": {
      "method": "PUT",
      "url": "Encounter/48be6903-2d43-4e92-8d65-54ee8c8b8429"
    }
  }, {
    "fullUrl": "https://madie.cms.gov/Coverage/ee403fd0-0e1d-4670-aef5-87e0b40c387a",
    "resource": {
      "resourceType": "Coverage",
      "id": "ee403fd0-0e1d-4670-aef5-87e0b40c387a",
      "status": "active",
      "subscriberId": "523435",
      "beneficiary": {
        "reference": "Patient/ed792352-3bb4-435d-896a-d221df866142"
      },
      "relationship": {
        "coding": [ {
          "system": "http://terminology.hl7.org/CodeSystem/subscriber-relationship",
          "code": "self"
        } ]
      },
      "period": {
        "start": "1961-12-01T08:00:00.000Z"
      },
      "payor": [ {
        "reference": "Organization/788da560-f78c-4754-bf07-a6a817fc96ce"
      } ]
    },
    "request": {
      "method": "PUT",
      "url": "Coverage/ee403fd0-0e1d-4670-aef5-87e0b40c387a"
    }
  }, {
    "fullUrl": "https://madie.cms.gov/Procedure/38c9c96d-8ac9-4c95-9bad-1325d95f8a8c",
    "resource": {
      "resourceType": "Procedure",
      "id": "38c9c96d-8ac9-4c95-9bad-1325d95f8a8c",
      "meta": {
        "profile": [ "http://hl7.org/fhir/us/qicore/StructureDefinition/qicore-procedure" ]
      },
      "extension": [ {
        "url": "http://hl7.org/fhir/us/qicore/StructureDefinition/qicore-recorded",
        "valueDateTime": "2026-11-19T13:35:00.000Z"
      } ],
      "status": "completed",
      "code": {
        "coding": [ {
          "system": "http://www.cms.gov/Medicare/Coding/ICD10",
          "code": "02560ZZ"
        }, {
          "system": "http://snomed.info/sct",
          "code": "175095005"
        } ]
      },
      "subject": {
        "reference": "Patient/ed792352-3bb4-435d-896a-d221df866142"
      },
      "performedPeriod": {
        "start": "2026-02-09T10:00:00.000Z"
      }
    },
    "request": {
      "method": "PUT",
      "url": "Procedure/38c9c96d-8ac9-4c95-9bad-1325d95f8a8c"
    }
  }, {
    "fullUrl": "https://madie.cms.gov/Condition/c0e8324d-7197-413e-8e7b-94ce73dfcfc4",
    "resource": {
      "resourceType": "Condition",
      "id": "c0e8324d-7197-413e-8e7b-94ce73dfcfc4",
      "meta": {
        "profile": [ "http://hl7.org/fhir/us/qicore/StructureDefinition/qicore-condition-encounter-diagnosis" ]
      },
      "clinicalStatus": {
        "coding": [ {
          "system": "http://terminology.hl7.org/CodeSystem/condition-clinical",
          "code": "active"
        } ]
      },
      "verificationStatus": {
        "coding": [ {
          "system": "http://terminology.hl7.org/CodeSystem/condition-ver-status",
          "code": "confirmed"
        } ]
      },
      "category": [ {
        "coding": [ {
          "system": "http://terminology.hl7.org/CodeSystem/condition-category",
          "code": "encounter-diagnosis",
          "display": "Encounter Diagnosis"
        } ]
      } ],
      "code": {
        "coding": [ {
          "system": "http://snomed.info/sct",
          "version": "2021-09",
          "code": "111297002",
          "display": "Nonparalytic stroke (disorder)",
          "userSelected": true
        } ]
      },
      "subject": {
        "reference": "Patient/ed792352-3bb4-435d-896a-d221df866142"
      },
      "recordedDate": "2026-10-13T08:00:00.000Z"
    },
    "request": {
      "method": "PUT",
      "url": "Condition/c0e8324d-7197-413e-8e7b-94ce73dfcfc4"
    }
  }, {
    "fullUrl": "https://madie.cms.gov/Organization/788da560-f78c-4754-bf07-a6a817fc96ce",
    "resource": {
      "resourceType": "Organization",
      "id": "788da560-f78c-4754-bf07-a6a817fc96ce",
      "meta": {
        "profile": [ "http://hl7.org/fhir/us/qicore/StructureDefinition/qicore-organization" ]
      },
      "identifier": [ {
        "use": "temp",
        "system": "urn:oid:2.16.840.1.113883.4.4",
        "value": "21-3259825"
      } ],
      "active": true,
      "type": [ {
        "coding": [ {
          "system": "http://terminology.hl7.org/CodeSystem/organization-type",
          "code": "pay",
          "display": "Payer"
        } ]
      } ],
      "name": "Blue Cross Blue Shield of Texas",
      "telecom": [ {
        "system": "phone",
        "value": "(+1) 972-766-6900"
      } ],
      "address": [ {
        "use": "billing",
        "type": "postal",
        "line": [ "P.O. Box 660044" ],
        "city": "Dallas",
        "state": "TX",
        "postalCode": "75266-0044",
        "country": "USA"
      } ]
    },
    "request": {
      "method": "PUT",
      "url": "Organization/788da560-f78c-4754-bf07-a6a817fc96ce"
    }
  }, {
    "fullUrl": "https://madie.cms.gov/Practitioner/e0b28671-7476-40b7-8fc8-2e66d785f5cc",
    "resource": {
      "resourceType": "Practitioner",
      "id": "e0b28671-7476-40b7-8fc8-2e66d785f5cc",
      "meta": {
        "profile": [ "http://hl7.org/fhir/us/qicore/StructureDefinition/qicore-practitioner" ]
      },
      "identifier": [ {
        "system": "http://hl7.org/fhir/sid/us-npi",
        "value": "9999999896"
      } ],
      "name": [ {
        "family": "Evil",
        "prefix": [ "Dr" ]
      } ]
    },
    "request": {
      "method": "PUT",
      "url": "Practitioner/e0b28671-7476-40b7-8fc8-2e66d785f5cc"
    }
  }, {
    "fullUrl": "https://madie.cms.gov/MeasureReport/d521b37f-1158-4db9-b46f-c2f907f47476",
    "resource": {
      "resourceType": "MeasureReport",
      "id": "d521b37f-1158-4db9-b46f-c2f907f47476",
      "meta": {
        "profile": [ "http://hl7.org/fhir/us/cqfmeasures/StructureDefinition/test-case-cqfm" ]
      },
      "contained": [ {
        "resourceType": "Parameters",
        "id": "baeb9a7b-9573-448e-8fb3-e114c17f384f-parameters",
        "parameter": [ {
          "name": "subject",
          "valueString": "ed792352-3bb4-435d-896a-d221df866142"
        } ]
      } ],
      "extension": [ {
        "url": "http://hl7.org/fhir/StructureDefinition/cqf-inputParameters",
        "valueReference": {
          "reference": "#baeb9a7b-9573-448e-8fb3-e114c17f384f-parameters"
        }
      }, {
        "url": "http://hl7.org/fhir/us/cqfmeasures/StructureDefinition/cqfm-testCaseDescription",
        "valueMarkdown": "Atrial Ablation starts after OccA Enc start time using relevant period. \n"
      } ],
      "modifierExtension": [ {
        "url": "http://hl7.org/fhir/us/cqfmeasures/StructureDefinition/cqfm-isTestCase",
        "valueBoolean": true
      } ],
      "status": "complete",
      "type": "individual",
      "measure": "https://madie.cms.gov/Measure/CMS71FHIRSTKAnticoagAFFlutter",
      "period": {
        "start": "2026-01-01",
        "end": "2026-12-31"
      },
      "group": [ {
        "id": "Group_1",
        "population": [ {
          "id": "InitialPopulation_1",
          "code": {
            "coding": [ {
              "system": "http://terminology.hl7.org/CodeSystem/measure-population",
              "code": "initial-population",
              "display": "Initial Population"
            } ]
          },
          "count": 1
        }, {
          "id": "Denominator_1",
          "code": {
            "coding": [ {
              "system": "http://terminology.hl7.org/CodeSystem/measure-population",
              "code": "denominator",
              "display": "Denominator"
            } ]
          },
          "count": 0
        }, {
          "id": "DenominatorExclusion_1",
          "code": {
            "coding": [ {
              "system": "http://terminology.hl7.org/CodeSystem/measure-population",
              "code": "denominator-exclusion",
              "display": "Denominator Exclusion"
            } ]
          },
          "count": 0
        }, {
          "id": "Numerator_1",
          "code": {
            "coding": [ {
              "system": "http://terminology.hl7.org/CodeSystem/measure-population",
              "code": "numerator",
              "display": "Numerator"
            } ]
          },
          "count": 0
        }, {
          "id": "DenominatorException_1",
          "code": {
            "coding": [ {
              "system": "http://terminology.hl7.org/CodeSystem/measure-population",
              "code": "denominator-exception",
              "display": "Denominator Exception"
            } ]
          },
          "count": 0
        } ],
        "measureScore": {
          "value": 0.0
        }
      } ],
      "evaluatedResource": [ {
        "reference": "Patient/ed792352-3bb4-435d-896a-d221df866142"
      }, {
        "reference": "Claim/505dd320-72d4-4e44-8aa8-1455e4078bf8"
      }, {
        "reference": "Encounter/48be6903-2d43-4e92-8d65-54ee8c8b8429"
      }, {
        "reference": "Coverage/ee403fd0-0e1d-4670-aef5-87e0b40c387a"
      }, {
        "reference": "Procedure/38c9c96d-8ac9-4c95-9bad-1325d95f8a8c"
      }, {
        "reference": "Condition/c0e8324d-7197-413e-8e7b-94ce73dfcfc4"
      }, {
        "reference": "Organization/788da560-f78c-4754-bf07-a6a817fc96ce"
      }, {
        "reference": "Practitioner/e0b28671-7476-40b7-8fc8-2e66d785f5cc"
      } ]
    },
    "request": {
      "method": "PUT",
      "url": "MeasureReport/d521b37f-1158-4db9-b46f-c2f907f47476"
    }
  } ]
}