{
  "resourceType": "Bundle",
  "id": "633c9d030968f8012250fc87",
  "type": "transaction",
  "entry": [ {
    "fullUrl": "https://madie.cms.gov/Patient/96b57130-dda8-481b-b96b-c0d48068384e",
    "resource": {
      "resourceType": "Patient",
      "id": "96b57130-dda8-481b-b96b-c0d48068384e",
      "meta": {
        "profile": [ "http://hl7.org/fhir/us/qicore/StructureDefinition/qicore-patient" ]
      },
      "text": {
        "status": "generated",
        "div": "<div xmlns=\"http://www.w3.org/1999/xhtml\"><div class=\"hapiHeaderText\">CMOdurEnc_ED&lt;1hrObs&lt;1hrBFEnc <b>DENEXPASS </b></div><table class=\"hapiPropertyTable\"><tbody><tr><td>Identifier</td><td>073447d69f29a0b5f6598bee2a80898d</td></tr><tr><td>Date of birth</td><td><span>18 September 1985</span></td></tr></tbody></table></div>"
      },
      "extension": [ {
        "url": "http://hl7.org/fhir/us/core/StructureDefinition/us-core-race",
        "extension": [ {
          "url": "ombCategory",
          "valueCoding": {
            "system": "urn:oid:2.16.840.1.113883.6.238",
            "code": "1002-5",
            "display": "American Indian or Alaska Native",
            "userSelected": true
          }
        }, {
          "url": "text",
          "valueString": "American Indian or Alaska Native"
        } ]
      }, {
        "url": "http://hl7.org/fhir/us/core/StructureDefinition/us-core-ethnicity",
        "extension": [ {
          "url": "ombCategory",
          "valueCoding": {
            "system": "urn:oid:2.16.840.1.113883.6.238",
            "code": "2135-2",
            "display": "Hispanic or Latino",
            "userSelected": true
          }
        }, {
          "url": "text",
          "valueString": "Hispanic or Latino"
        } ]
      } ],
      "identifier": [ {
        "type": {
          "coding": [ {
            "system": "http://terminology.hl7.org/CodeSystem/v2-0203",
            "code": "MR"
          } ]
        },
        "system": "https://bonnie-fhir.healthit.gov/",
        "value": "633c9d030968f8012250fc87"
      } ],
      "active": true,
      "name": [ {
        "use": "usual",
        "family": "DENEXPass",
        "given": [ "CMOdurEnc_ED<1hrObs<1hrBFEnc" ]
      } ],
      "gender": "female",
      "birthDate": "1986-09-18"
    },
    "request": {
      "method": "PUT",
      "url": "Patient/96b57130-dda8-481b-b96b-c0d48068384e"
    }
  }, {
    "fullUrl": "https://madie.cms.gov/Condition/22839883-7e19-408a-8bdc-f8c4993a1d6f",
    "resource": {
      "resourceType": "Condition",
      "id": "22839883-7e19-408a-8bdc-f8c4993a1d6f",
      "meta": {
        "profile": [ "http://hl7.org/fhir/us/qicore/StructureDefinition/qicore-condition-problems-health-concerns" ]
      },
      "clinicalStatus": {
        "coding": [ {
          "system": "http://terminology.hl7.org/CodeSystem/condition-clinical",
          "code": "inactive"
        } ]
      },
      "verificationStatus": {
        "coding": [ {
          "system": "http://terminology.hl7.org/CodeSystem/condition-ver-status",
          "code": "confirmed"
        } ]
      },
      "category": [ {
        "coding": [ {
          "system": "http://terminology.hl7.org/CodeSystem/condition-category",
          "code": "problem-list-item"
        } ]
      } ],
      "code": {
        "coding": [ {
          "system": "http://hl7.org/fhir/sid/icd-10-cm",
          "code": "I48.20"
        }, {
          "system": "http://hl7.org/fhir/sid/icd-10-cm",
          "code": "I48.0"
        }, {
          "system": "http://snomed.info/sct",
          "code": "5370000"
        } ]
      },
      "subject": {
        "reference": "Patient/96b57130-dda8-481b-b96b-c0d48068384e"
      },
      "onsetDateTime": "2026-10-01T09:00:00.000Z",
      "abatementDateTime": "2026-10-12T00:15:00.000Z"
    },
    "request": {
      "method": "PUT",
      "url": "Condition/22839883-7e19-408a-8bdc-f8c4993a1d6f"
    }
  }, {
    "fullUrl": "https://madie.cms.gov/Encounter/af842553-049c-463d-b375-d6fa687af956",
    "resource": {
      "resourceType": "Encounter",
      "id": "af842553-049c-463d-b375-d6fa687af956",
      "meta": {
        "profile": [ "http://hl7.org/fhir/us/qicore/StructureDefinition/qicore-encounter" ]
      },
      "status": "finished",
      "class": {
        "system": "http://terminology.hl7.org/CodeSystem/v3-ActCode",
        "code": "EMER",
        "display": "emergency"
      },
      "type": [ {
        "coding": [ {
          "system": "http://snomed.info/sct",
          "code": "4525004"
        } ]
      } ],
      "subject": {
        "reference": "Patient/96b57130-dda8-481b-b96b-c0d48068384e"
      },
      "period": {
        "start": "2026-10-01T07:00:00.000Z",
        "end": "2026-10-01T07:59:00.000Z"
      },
      "length": {
        "value": 0,
        "unit": "days"
      }
    },
    "request": {
      "method": "PUT",
      "url": "Encounter/af842553-049c-463d-b375-d6fa687af956"
    }
  }, {
    "fullUrl": "https://madie.cms.gov/Encounter/d8f8985e-c93b-4d86-ae8c-72e213cfcc67",
    "resource": {
      "resourceType": "Encounter",
      "id": "d8f8985e-c93b-4d86-ae8c-72e213cfcc67",
      "meta": {
        "profile": [ "http://hl7.org/fhir/us/qicore/StructureDefinition/qicore-encounter" ]
      },
      "status": "finished",
      "class": {
        "system": "http://terminology.hl7.org/CodeSystem/v3-ActCode",
        "code": "OBSENC",
        "display": "observation encounter"
      },
      "type": [ {
        "coding": [ {
          "system": "http://snomed.info/sct",
          "code": "448851000124103"
        } ]
      } ],
      "subject": {
        "reference": "Patient/96b57130-dda8-481b-b96b-c0d48068384e"
      },
      "period": {
        "start": "2026-10-01T08:00:00.000Z",
        "end": "2026-10-01T08:59:00.000Z"
      },
      "length": {
        "value": 0,
        "unit": "days"
      }
    },
    "request": {
      "method": "PUT",
      "url": "Encounter/d8f8985e-c93b-4d86-ae8c-72e213cfcc67"
    }
  }, {
    "fullUrl": "https://madie.cms.gov/Encounter/b0336370-20ba-4150-bafd-c22a36c95c30",
    "resource": {
      "resourceType": "Encounter",
      "id": "b0336370-20ba-4150-bafd-c22a36c95c30",
      "meta": {
        "profile": [ "http://hl7.org/fhir/us/qicore/StructureDefinition/qicore-encounter" ]
      },
      "status": "finished",
      "class": {
        "system": "http://terminology.hl7.org/CodeSystem/v3-ActCode",
        "code": "IMP",
        "display": "inpatient encounter"
      },
      "type": [ {
        "coding": [ {
          "system": "http://snomed.info/sct",
          "code": "32485007"
        } ]
      } ],
      "subject": {
        "reference": "Patient/96b57130-dda8-481b-b96b-c0d48068384e"
      },
      "period": {
        "start": "2026-10-01T09:00:00.000Z",
        "end": "2026-10-12T00:15:00.000Z"
      },
      "length": {
        "value": 11,
        "unit": "days"
      },
      "reasonReference": [ {
        "reference": "Condition/22839883-7e19-408a-8bdc-f8c4993a1d6f"
      } ]
    },
    "request": {
      "method": "PUT",
      "url": "Encounter/b0336370-20ba-4150-bafd-c22a36c95c30"
    }
  }, {
    "fullUrl": "https://madie.cms.gov/Claim/e558e873-5cb9-418f-a504-e96aca2d9c20",
    "resource": {
      "resourceType": "Claim",
      "id": "e558e873-5cb9-418f-a504-e96aca2d9c20",
      "meta": {
        "profile": [ "http://hl7.org/fhir/us/qicore/StructureDefinition/qicore-claim" ]
      },
      "status": "active",
      "type": {
        "coding": [ {
          "system": "http://terminology.hl7.org/CodeSystem/claim-type",
          "code": "institutional"
        } ]
      },
      "use": "claim",
      "patient": {
        "reference": "Patient/96b57130-dda8-481b-b96b-c0d48068384e"
      },
      "created": "2026-12-01",
      "provider": {
        "reference": "Practitioner/b9693a6a-c8ab-446d-a3b5-f9a396795ab2"
      },
      "priority": {
        "coding": [ {
          "system": "http://terminology.hl7.org/CodeSystem/processpriority",
          "code": "normal"
        } ]
      },
      "diagnosis": [ {
        "sequence": 1,
        "diagnosisCodeableConcept": {
          "coding": [ {
            "system": "http://hl7.org/fhir/sid/icd-10-cm",
            "code": "I63.00"
          } ]
        },
        "type": [ {
          "coding": [ {
            "system": "http://terminology.hl7.org/CodeSystem/ex-diagnosistype",
            "code": "principal"
          } ]
        } ]
      } ],
      "insurance": [ {
        "sequence": 1,
        "focal": true,
        "coverage": {
          "reference": "Coverage/5fa041661c76ba66d9959367"
        }
      } ],
      "item": [ {
        "sequence": 1,
        "diagnosisSequence": [ 1 ],
        "productOrService": {
          "coding": [ {
            "system": "http://terminology.hl7.org/CodeSystem/ex-USCLS",
            "code": "99555"
          } ]
        },
        "encounter": [ {
          "reference": "Encounter/b0336370-20ba-4150-bafd-c22a36c95c30"
        } ]
      } ]
    },
    "request": {
      "method": "PUT",
      "url": "Claim/e558e873-5cb9-418f-a504-e96aca2d9c20"
    }
  }, {
    "fullUrl": "https://madie.cms.gov/ServiceRequest/859d2fbe-7fd2-4e53-bc3c-8cdb8a9074eb",
    "resource": {
      "resourceType": "ServiceRequest",
      "id": "859d2fbe-7fd2-4e53-bc3c-8cdb8a9074eb",
      "meta": {
        "profile": [ "http://hl7.org/fhir/us/qicore/StructureDefinition/qicore-servicerequest" ]
      },
      "status": "active",
      "intent": "order",
      "code": {
        "coding": [ {
          "system": "http://snomed.info/sct",
          "code": "133918004"
        } ]
      },
      "subject": {
        "reference": "Patient/96b57130-dda8-481b-b96b-c0d48068384e"
      },
      "authoredOn": "2026-10-01T09:00:00.000Z"
    },
    "request": {
      "method": "PUT",
      "url": "ServiceRequest/859d2fbe-7fd2-4e53-bc3c-8cdb8a9074eb"
    }
  }, {
    "fullUrl": "https://madie.cms.gov/Coverage/3666a471-2520-467e-8779-aa7babb8a5d0",
    "resource": {
      "resourceType": "Coverage",
      "id": "3666a471-2520-467e-8779-aa7babb8a5d0",
      "status": "active",
      "subscriberId": "523435",
      "beneficiary": {
        "reference": "Patient/96b57130-dda8-481b-b96b-c0d48068384e"
      },
      "relationship": {
        "coding": [ {
          "system": "http://terminology.hl7.org/CodeSystem/subscriber-relationship",
          "code": "self"
        } ]
      },
      "period": {
        "start": "1986-09-18T08:00:00.000Z"
      },
      "payor": [ {
        "reference": "Organization/510801bf-83e8-4a03-a129-122d138845aa"
      } ]
    },
    "request": {
      "method": "PUT",
      "url": "Coverage/3666a471-2520-467e-8779-aa7babb8a5d0"
    }
  }, {
    "fullUrl": "https://madie.cms.gov/Condition/419f938d-6052-4e8a-b75c-ed07102af38d",
    "resource": {
      "resourceType": "Condition",
      "id": "419f938d-6052-4e8a-b75c-ed07102af38d",
      "meta": {
        "profile": [ "http://hl7.org/fhir/us/qicore/StructureDefinition/qicore-condition-encounter-diagnosis" ]
      },
      "clinicalStatus": {
        "coding": [ {
          "system": "http://terminology.hl7.org/CodeSystem/condition-clinical",
          "code": "active"
        } ]
      },
      "verificationStatus": {
        "coding": [ {
          "system": "http://terminology.hl7.org/CodeSystem/condition-ver-status",
          "code": "confirmed"
        } ]
      },
      "category": [ {
        "coding": [ {
          "system": "http://terminology.hl7.org/CodeSystem/condition-category",
          "code": "encounter-diagnosis",
          "display": "Encounter Diagnosis"
        } ]
      } ],
      "code": {
        "coding": [ {
          "system": "http://snomed.info/sct",
          "version": "2021-09",
          "code": "111297002",
          "display": "Nonparalytic stroke (disorder)",
          "userSelected": true
        } ]
      },
      "subject": {
        "reference": "Patient/96b57130-dda8-481b-b96b-c0d48068384e"
      },
      "recordedDate": "2026-10-13T08:00:00.000Z"
    },
    "request": {
      "method": "PUT",
      "url": "Condition/419f938d-6052-4e8a-b75c-ed07102af38d"
    }
  }, {
    "fullUrl": "https://madie.cms.gov/Organization/510801bf-83e8-4a03-a129-122d138845aa",
    "resource": {
      "resourceType": "Organization",
      "id": "510801bf-83e8-4a03-a129-122d138845aa",
      "meta": {
        "profile": [ "http://hl7.org/fhir/us/qicore/StructureDefinition/qicore-organization" ]
      },
      "identifier": [ {
        "use": "temp",
        "system": "urn:oid:2.16.840.1.113883.4.4",
        "value": "21-3259825"
      } ],
      "active": true,
      "type": [ {
        "coding": [ {
          "system": "http://terminology.hl7.org/CodeSystem/organization-type",
          "code": "pay",
          "display": "Payer"
        } ]
      } ],
      "name": "Blue Cross Blue Shield of Texas",
      "telecom": [ {
        "system": "phone",
        "value": "(+1) 972-766-6900"
      } ],
      "address": [ {
        "use": "billing",
        "type": "postal",
        "line": [ "P.O. Box 660044" ],
        "city": "Dallas",
        "state": "TX",
        "postalCode": "75266-0044",
        "country": "USA"
      } ]
    },
    "request": {
      "method": "PUT",
      "url": "Organization/510801bf-83e8-4a03-a129-122d138845aa"
    }
  }, {
    "fullUrl": "https://madie.cms.gov/Practitioner/b9693a6a-c8ab-446d-a3b5-f9a396795ab2",
    "resource": {
      "resourceType": "Practitioner",
      "id": "b9693a6a-c8ab-446d-a3b5-f9a396795ab2",
      "meta": {
        "profile": [ "http://hl7.org/fhir/us/qicore/StructureDefinition/qicore-practitioner" ]
      },
      "identifier": [ {
        "system": "http://hl7.org/fhir/sid/us-npi",
        "value": "9999999896"
      } ],
      "name": [ {
        "family": "Evil",
        "prefix": [ "Dr" ]
      } ]
    },
    "request": {
      "method": "PUT",
      "url": "Practitioner/b9693a6a-c8ab-446d-a3b5-f9a396795ab2"
    }
  }, {
    "fullUrl": "https://madie.cms.gov/MeasureReport/07822c9c-40ac-4b23-8951-1bbdd8d64f1a",
    "resource": {
      "resourceType": "MeasureReport",
      "id": "07822c9c-40ac-4b23-8951-1bbdd8d64f1a",
      "meta": {
        "profile": [ "http://hl7.org/fhir/us/cqfmeasures/StructureDefinition/test-case-cqfm" ]
      },
      "contained": [ {
        "resourceType": "Parameters",
        "id": "5cd9bafb-7973-4704-aa6a-14f8a8c71c09-parameters",
        "parameter": [ {
          "name": "subject",
          "valueString": "96b57130-dda8-481b-b96b-c0d48068384e"
        } ]
      } ],
      "extension": [ {
        "url": "http://hl7.org/fhir/StructureDefinition/cqf-inputParameters",
        "valueReference": {
          "reference": "#5cd9bafb-7973-4704-aa6a-14f8a8c71c09-parameters"
        }
      }, {
        "url": "http://hl7.org/fhir/us/cqfmeasures/StructureDefinition/cqfm-testCaseDescription",
        "valueMarkdown": "Patient receives CMO during inpatient encounter. ED ends 1 min before Observation start, Observation ends 1 min before inpatient encounter start Testing  HospitalizationWithObservation function.\n"
      } ],
      "modifierExtension": [ {
        "url": "http://hl7.org/fhir/us/cqfmeasures/StructureDefinition/cqfm-isTestCase",
        "valueBoolean": true
      } ],
      "status": "complete",
      "type": "individual",
      "measure": "https://madie.cms.gov/Measure/CMS71FHIRSTKAnticoagAFFlutter",
      "period": {
        "start": "2026-01-01",
        "end": "2026-12-31"
      },
      "group": [ {
        "id": "Group_1",
        "population": [ {
          "id": "InitialPopulation_1",
          "code": {
            "coding": [ {
              "system": "http://terminology.hl7.org/CodeSystem/measure-population",
              "code": "initial-population",
              "display": "Initial Population"
            } ]
          },
          "count": 1
        }, {
          "id": "Denominator_1",
          "code": {
            "coding": [ {
              "system": "http://terminology.hl7.org/CodeSystem/measure-population",
              "code": "denominator",
              "display": "Denominator"
            } ]
          },
          "count": 1
        }, {
          "id": "DenominatorExclusion_1",
          "code": {
            "coding": [ {
              "system": "http://terminology.hl7.org/CodeSystem/measure-population",
              "code": "denominator-exclusion",
              "display": "Denominator Exclusion"
            } ]
          },
          "count": 1
        }, {
          "id": "Numerator_1",
          "code": {
            "coding": [ {
              "system": "http://terminology.hl7.org/CodeSystem/measure-population",
              "code": "numerator",
              "display": "Numerator"
            } ]
          },
          "count": 0
        }, {
          "id": "DenominatorException_1",
          "code": {
            "coding": [ {
              "system": "http://terminology.hl7.org/CodeSystem/measure-population",
              "code": "denominator-exception",
              "display": "Denominator Exception"
            } ]
          },
          "count": 0
        } ],
        "measureScore": {
          "value": 0.0
        }
      } ],
      "evaluatedResource": [ {
        "reference": "Patient/96b57130-dda8-481b-b96b-c0d48068384e"
      }, {
        "reference": "Condition/22839883-7e19-408a-8bdc-f8c4993a1d6f"
      }, {
        "reference": "Encounter/af842553-049c-463d-b375-d6fa687af956"
      }, {
        "reference": "Encounter/d8f8985e-c93b-4d86-ae8c-72e213cfcc67"
      }, {
        "reference": "Encounter/b0336370-20ba-4150-bafd-c22a36c95c30"
      }, {
        "reference": "Claim/e558e873-5cb9-418f-a504-e96aca2d9c20"
      }, {
        "reference": "ServiceRequest/859d2fbe-7fd2-4e53-bc3c-8cdb8a9074eb"
      }, {
        "reference": "Coverage/3666a471-2520-467e-8779-aa7babb8a5d0"
      }, {
        "reference": "Condition/419f938d-6052-4e8a-b75c-ed07102af38d"
      }, {
        "reference": "Organization/510801bf-83e8-4a03-a129-122d138845aa"
      }, {
        "reference": "Practitioner/b9693a6a-c8ab-446d-a3b5-f9a396795ab2"
      } ]
    },
    "request": {
      "method": "PUT",
      "url": "MeasureReport/07822c9c-40ac-4b23-8951-1bbdd8d64f1a"
    }
  } ]
}