{
  "resourceType": "Bundle",
  "id": "633c9d030968f8012250fc93",
  "type": "transaction",
  "entry": [ {
    "fullUrl": "https://madie.cms.gov/Patient/ccfddeae-a86e-4e43-adca-2ceef716970e",
    "resource": {
      "resourceType": "Patient",
      "id": "ccfddeae-a86e-4e43-adca-2ceef716970e",
      "meta": {
        "profile": [ "http://hl7.org/fhir/us/qicore/StructureDefinition/qicore-patient" ]
      },
      "text": {
        "status": "generated",
        "div": "<div xmlns=\"http://www.w3.org/1999/xhtml\"><div class=\"hapiHeaderText\">MedDCAnticoaStartTmEQEncAdmTm <b>NUMERPASS </b></div><table class=\"hapiPropertyTable\"><tbody><tr><td>Identifier</td><td>31fcea6cd6f0c1c8b9c40622729fede7</td></tr><tr><td>Date of birth</td><td><span>23 May 1954</span></td></tr></tbody></table></div>"
      },
      "extension": [ {
        "url": "http://hl7.org/fhir/us/core/StructureDefinition/us-core-race",
        "extension": [ {
          "url": "ombCategory",
          "valueCoding": {
            "system": "urn:oid:2.16.840.1.113883.6.238",
            "code": "1002-5",
            "display": "American Indian or Alaska Native",
            "userSelected": true
          }
        }, {
          "url": "text",
          "valueString": "American Indian or Alaska Native"
        } ]
      }, {
        "url": "http://hl7.org/fhir/us/core/StructureDefinition/us-core-ethnicity",
        "extension": [ {
          "url": "ombCategory",
          "valueCoding": {
            "system": "urn:oid:2.16.840.1.113883.6.238",
            "code": "2135-2",
            "display": "Hispanic or Latino",
            "userSelected": true
          }
        }, {
          "url": "text",
          "valueString": "Hispanic or Latino"
        } ]
      }, {
        "url": "http://hl7.org/fhir/us/core/StructureDefinition/us-core-sex",
        "valueCode": "248152002"
      } ],
      "identifier": [ {
        "type": {
          "coding": [ {
            "system": "http://terminology.hl7.org/CodeSystem/v2-0203",
            "code": "MR"
          } ]
        },
        "system": "https://bonnie-fhir.healthit.gov/",
        "value": "633c9d030968f8012250fc93"
      } ],
      "active": true,
      "name": [ {
        "use": "usual",
        "family": "NUMERPass",
        "given": [ "MedDCAnticoaStartTmEQEncAdmTm" ]
      } ],
      "gender": "female",
      "birthDate": "1955-05-23"
    },
    "request": {
      "method": "PUT",
      "url": "Patient/ccfddeae-a86e-4e43-adca-2ceef716970e"
    }
  }, {
    "fullUrl": "https://madie.cms.gov/Observation/36980698-a0ab-46ff-b151-1916788e371b",
    "resource": {
      "resourceType": "Observation",
      "id": "36980698-a0ab-46ff-b151-1916788e371b",
      "meta": {
        "profile": [ "http://hl7.org/fhir/us/qicore/StructureDefinition/qicore-simple-observation" ]
      },
      "status": "final",
      "category": [ {
        "coding": [ {
          "system": "http://terminology.hl7.org/CodeSystem/observation-category",
          "code": "exam",
          "display": "exam",
          "userSelected": true
        } ]
      } ],
      "code": {
        "coding": [ {
          "system": "http://snomed.info/sct",
          "code": "429508000"
        } ]
      },
      "subject": {
        "reference": "Patient/ccfddeae-a86e-4e43-adca-2ceef716970e"
      },
      "effectiveDateTime": "2026-11-20T08:00:00.000Z",
      "valueDateTime": "2026-11-24T08:15:00.000Z"
    },
    "request": {
      "method": "PUT",
      "url": "Observation/36980698-a0ab-46ff-b151-1916788e371b"
    }
  }, {
    "fullUrl": "https://madie.cms.gov/Encounter/7ebf7ac4-ab71-4c4a-9d0d-9aa5d6de69e0",
    "resource": {
      "resourceType": "Encounter",
      "id": "7ebf7ac4-ab71-4c4a-9d0d-9aa5d6de69e0",
      "meta": {
        "profile": [ "http://hl7.org/fhir/us/qicore/StructureDefinition/qicore-encounter" ]
      },
      "status": "finished",
      "class": {
        "system": "http://terminology.hl7.org/CodeSystem/v3-ActCode",
        "code": "IMP",
        "display": "inpatient encounter"
      },
      "type": [ {
        "coding": [ {
          "system": "http://snomed.info/sct",
          "code": "32485007"
        } ]
      } ],
      "subject": {
        "reference": "Patient/ccfddeae-a86e-4e43-adca-2ceef716970e"
      },
      "period": {
        "start": "2026-11-20T08:00:00.000Z",
        "end": "2026-11-24T08:15:00.000Z"
      },
      "length": {
        "value": 4,
        "unit": "days"
      },
      "reasonReference": [ {
        "reference": "Condition/d4b1885e-4d9e-4dea-af74-04dcb3d5f2cd"
      } ]
    },
    "request": {
      "method": "PUT",
      "url": "Encounter/7ebf7ac4-ab71-4c4a-9d0d-9aa5d6de69e0"
    }
  }, {
    "fullUrl": "https://madie.cms.gov/MedicationRequest/65093b38-c831-455e-866b-cf84ac0f50fc",
    "resource": {
      "resourceType": "MedicationRequest",
      "id": "65093b38-c831-455e-866b-cf84ac0f50fc",
      "meta": {
        "profile": [ "http://hl7.org/fhir/us/qicore/StructureDefinition/qicore-medicationrequest" ]
      },
      "status": "active",
      "intent": "order",
      "category": [ {
        "coding": [ {
          "system": "http://terminology.hl7.org/CodeSystem/medicationrequest-category",
          "code": "community",
          "display": "Community",
          "userSelected": true
        } ]
      } ],
      "medicationCodeableConcept": {
        "coding": [ {
          "system": "http://www.nlm.nih.gov/research/umls/rxnorm",
          "code": "308351"
        } ]
      },
      "subject": {
        "reference": "Patient/ccfddeae-a86e-4e43-adca-2ceef716970e"
      },
      "authoredOn": "2026-11-20T08:00:00.000Z",
      "requester": {
        "reference": "Practitioner/example"
      }
    },
    "request": {
      "method": "PUT",
      "url": "MedicationRequest/65093b38-c831-455e-866b-cf84ac0f50fc"
    }
  }, {
    "fullUrl": "https://madie.cms.gov/Claim/08697ee7-6075-467e-aec1-fe0b40a40c5d",
    "resource": {
      "resourceType": "Claim",
      "id": "08697ee7-6075-467e-aec1-fe0b40a40c5d",
      "meta": {
        "profile": [ "http://hl7.org/fhir/us/qicore/StructureDefinition/qicore-claim" ]
      },
      "status": "active",
      "type": {
        "coding": [ {
          "system": "http://terminology.hl7.org/CodeSystem/claim-type",
          "code": "institutional"
        } ]
      },
      "use": "claim",
      "patient": {
        "reference": "Patient/ccfddeae-a86e-4e43-adca-2ceef716970e"
      },
      "created": "2026-12-01",
      "provider": {
        "reference": "Practitioner/b2a0a858-6392-40d0-9a17-c5bbc8d42d30"
      },
      "priority": {
        "coding": [ {
          "system": "http://terminology.hl7.org/CodeSystem/processpriority",
          "code": "normal"
        } ]
      },
      "diagnosis": [ {
        "sequence": 1,
        "diagnosisCodeableConcept": {
          "coding": [ {
            "system": "http://hl7.org/fhir/sid/icd-10-cm",
            "code": "I63.00"
          } ]
        },
        "type": [ {
          "coding": [ {
            "system": "http://terminology.hl7.org/CodeSystem/ex-diagnosistype",
            "code": "principal"
          } ]
        } ]
      } ],
      "insurance": [ {
        "sequence": 1,
        "focal": true,
        "coverage": {
          "reference": "Coverage/5fa041661c76ba66d9959367"
        }
      } ],
      "item": [ {
        "sequence": 1,
        "diagnosisSequence": [ 1 ],
        "productOrService": {
          "coding": [ {
            "system": "http://terminology.hl7.org/CodeSystem/ex-USCLS",
            "code": "99555"
          } ]
        },
        "encounter": [ {
          "reference": "Encounter/7ebf7ac4-ab71-4c4a-9d0d-9aa5d6de69e0"
        } ]
      } ]
    },
    "request": {
      "method": "PUT",
      "url": "Claim/08697ee7-6075-467e-aec1-fe0b40a40c5d"
    }
  }, {
    "fullUrl": "https://madie.cms.gov/Coverage/5ea769cc-c988-420a-ae39-eed88df40a25",
    "resource": {
      "resourceType": "Coverage",
      "id": "5ea769cc-c988-420a-ae39-eed88df40a25",
      "meta": {
        "profile": [ "http://hl7.org/fhir/us/qicore/StructureDefinition/qicore-coverage" ]
      },
      "status": "active",
      "subscriberId": "523435",
      "beneficiary": {
        "reference": "Patient/ccfddeae-a86e-4e43-adca-2ceef716970e"
      },
      "relationship": {
        "coding": [ {
          "system": "http://terminology.hl7.org/CodeSystem/subscriber-relationship",
          "code": "self"
        } ]
      },
      "payor": [ {
        "reference": "Organization/7f1e15ca-80ca-4fab-86d6-b64dff8dda5f"
      } ]
    },
    "request": {
      "method": "PUT",
      "url": "Coverage/5ea769cc-c988-420a-ae39-eed88df40a25"
    }
  }, {
    "fullUrl": "https://madie.cms.gov/Condition/d4b1885e-4d9e-4dea-af74-04dcb3d5f2cd",
    "resource": {
      "resourceType": "Condition",
      "id": "d4b1885e-4d9e-4dea-af74-04dcb3d5f2cd",
      "meta": {
        "profile": [ "http://hl7.org/fhir/us/qicore/StructureDefinition/qicore-condition-encounter-diagnosis" ]
      },
      "clinicalStatus": {
        "coding": [ {
          "system": "http://terminology.hl7.org/CodeSystem/condition-clinical",
          "code": "active"
        } ]
      },
      "verificationStatus": {
        "coding": [ {
          "system": "http://terminology.hl7.org/CodeSystem/condition-ver-status",
          "code": "confirmed"
        } ]
      },
      "category": [ {
        "coding": [ {
          "system": "http://terminology.hl7.org/CodeSystem/condition-category",
          "code": "encounter-diagnosis",
          "display": "Encounter Diagnosis"
        } ]
      } ],
      "code": {
        "coding": [ {
          "system": "http://snomed.info/sct",
          "version": "2021-09",
          "code": "111297002",
          "display": "Nonparalytic stroke (disorder)",
          "userSelected": true
        } ]
      },
      "subject": {
        "reference": "Patient/ccfddeae-a86e-4e43-adca-2ceef716970e"
      },
      "recordedDate": "2026-10-13T08:00:00.000Z"
    },
    "request": {
      "method": "PUT",
      "url": "Condition/d4b1885e-4d9e-4dea-af74-04dcb3d5f2cd"
    }
  }, {
    "fullUrl": "https://madie.cms.gov/Organization/7f1e15ca-80ca-4fab-86d6-b64dff8dda5f",
    "resource": {
      "resourceType": "Organization",
      "id": "7f1e15ca-80ca-4fab-86d6-b64dff8dda5f",
      "meta": {
        "profile": [ "http://hl7.org/fhir/us/qicore/StructureDefinition/qicore-organization" ]
      },
      "identifier": [ {
        "use": "temp",
        "system": "urn:oid:2.16.840.1.113883.4.4",
        "value": "21-3259825"
      } ],
      "active": true,
      "type": [ {
        "coding": [ {
          "system": "http://terminology.hl7.org/CodeSystem/organization-type",
          "code": "pay",
          "display": "Payer"
        } ]
      } ],
      "name": "Blue Cross Blue Shield of Texas",
      "telecom": [ {
        "system": "phone",
        "value": "(+1) 972-766-6900"
      } ],
      "address": [ {
        "use": "billing",
        "type": "postal",
        "line": [ "P.O. Box 660044" ],
        "city": "Dallas",
        "state": "TX",
        "postalCode": "75266-0044",
        "country": "USA"
      } ]
    },
    "request": {
      "method": "PUT",
      "url": "Organization/7f1e15ca-80ca-4fab-86d6-b64dff8dda5f"
    }
  }, {
    "fullUrl": "https://madie.cms.gov/Practitioner/b2a0a858-6392-40d0-9a17-c5bbc8d42d30",
    "resource": {
      "resourceType": "Practitioner",
      "id": "b2a0a858-6392-40d0-9a17-c5bbc8d42d30",
      "meta": {
        "profile": [ "http://hl7.org/fhir/us/qicore/StructureDefinition/qicore-practitioner" ]
      },
      "identifier": [ {
        "system": "http://hl7.org/fhir/sid/us-npi",
        "value": "9999999896"
      } ],
      "name": [ {
        "family": "Evil",
        "prefix": [ "Dr" ]
      } ]
    },
    "request": {
      "method": "PUT",
      "url": "Practitioner/b2a0a858-6392-40d0-9a17-c5bbc8d42d30"
    }
  }, {
    "fullUrl": "https://madie.cms.gov/MeasureReport/c04f859f-b7d1-45ba-9d14-a6e132043d8d",
    "resource": {
      "resourceType": "MeasureReport",
      "id": "c04f859f-b7d1-45ba-9d14-a6e132043d8d",
      "meta": {
        "profile": [ "http://hl7.org/fhir/us/cqfmeasures/StructureDefinition/test-case-cqfm" ]
      },
      "contained": [ {
        "resourceType": "Parameters",
        "id": "f1522854-e31e-4192-8573-916c9fac5c91-parameters",
        "parameter": [ {
          "name": "subject",
          "valueString": "ccfddeae-a86e-4e43-adca-2ceef716970e"
        } ]
      } ],
      "extension": [ {
        "url": "http://hl7.org/fhir/StructureDefinition/cqf-inputParameters",
        "valueReference": {
          "reference": "#f1522854-e31e-4192-8573-916c9fac5c91-parameters"
        }
      }, {
        "url": "http://hl7.org/fhir/us/cqfmeasures/StructureDefinition/cqfm-testCaseDescription",
        "valueMarkdown": "Discharge on Anticoagulation with Observation HX of ablation"
      } ],
      "modifierExtension": [ {
        "url": "http://hl7.org/fhir/us/cqfmeasures/StructureDefinition/cqfm-isTestCase",
        "valueBoolean": true
      } ],
      "status": "complete",
      "type": "individual",
      "measure": "https://madie.cms.gov/Measure/CMS71FHIRSTKAnticoagAFFlutter",
      "period": {
        "start": "2026-01-01",
        "end": "2026-12-31"
      },
      "group": [ {
        "id": "Group_1",
        "population": [ {
          "id": "InitialPopulation_1",
          "code": {
            "coding": [ {
              "system": "http://terminology.hl7.org/CodeSystem/measure-population",
              "code": "initial-population",
              "display": "Initial Population"
            } ]
          },
          "count": 1
        }, {
          "id": "Denominator_1",
          "code": {
            "coding": [ {
              "system": "http://terminology.hl7.org/CodeSystem/measure-population",
              "code": "denominator",
              "display": "Denominator"
            } ]
          },
          "count": 1
        }, {
          "id": "DenominatorExclusion_1",
          "code": {
            "coding": [ {
              "system": "http://terminology.hl7.org/CodeSystem/measure-population",
              "code": "denominator-exclusion",
              "display": "Denominator Exclusion"
            } ]
          },
          "count": 0
        }, {
          "id": "Numerator_1",
          "code": {
            "coding": [ {
              "system": "http://terminology.hl7.org/CodeSystem/measure-population",
              "code": "numerator",
              "display": "Numerator"
            } ]
          },
          "count": 1
        }, {
          "id": "DenominatorException_1",
          "code": {
            "coding": [ {
              "system": "http://terminology.hl7.org/CodeSystem/measure-population",
              "code": "denominator-exception",
              "display": "Denominator Exception"
            } ]
          },
          "count": 0
        } ],
        "measureScore": {
          "value": 0.0
        }
      } ],
      "evaluatedResource": [ {
        "reference": "Patient/ccfddeae-a86e-4e43-adca-2ceef716970e"
      }, {
        "reference": "Observation/36980698-a0ab-46ff-b151-1916788e371b"
      }, {
        "reference": "Encounter/7ebf7ac4-ab71-4c4a-9d0d-9aa5d6de69e0"
      }, {
        "reference": "MedicationRequest/65093b38-c831-455e-866b-cf84ac0f50fc"
      }, {
        "reference": "Claim/08697ee7-6075-467e-aec1-fe0b40a40c5d"
      }, {
        "reference": "Coverage/5ea769cc-c988-420a-ae39-eed88df40a25"
      }, {
        "reference": "Condition/d4b1885e-4d9e-4dea-af74-04dcb3d5f2cd"
      }, {
        "reference": "Organization/7f1e15ca-80ca-4fab-86d6-b64dff8dda5f"
      }, {
        "reference": "Practitioner/b2a0a858-6392-40d0-9a17-c5bbc8d42d30"
      } ]
    },
    "request": {
      "method": "PUT",
      "url": "MeasureReport/c04f859f-b7d1-45ba-9d14-a6e132043d8d"
    }
  } ]
}