{
  "resourceType": "Bundle",
  "id": "633c9d030968f8012250fc88",
  "type": "transaction",
  "entry": [ {
    "fullUrl": "https://madie.cms.gov/Patient/bfa4b097-4c27-4046-a036-d97267e94113",
    "resource": {
      "resourceType": "Patient",
      "id": "bfa4b097-4c27-4046-a036-d97267e94113",
      "meta": {
        "profile": [ "http://hl7.org/fhir/us/qicore/StructureDefinition/qicore-patient" ]
      },
      "text": {
        "status": "generated",
        "div": "<div xmlns=\"http://www.w3.org/1999/xhtml\"><div class=\"hapiHeaderText\">CMOdurED_ED&lt;1hrNoObsBFEnc <b>DENEXPASS </b></div><table class=\"hapiPropertyTable\"><tbody><tr><td>Identifier</td><td>cd0066a23b25d0eb7377a3fb55c6a2f4</td></tr><tr><td>Date of birth</td><td><span>18 September 1985</span></td></tr></tbody></table></div>"
      },
      "extension": [ {
        "url": "http://hl7.org/fhir/us/core/StructureDefinition/us-core-race",
        "extension": [ {
          "url": "ombCategory",
          "valueCoding": {
            "system": "urn:oid:2.16.840.1.113883.6.238",
            "code": "1002-5",
            "display": "American Indian or Alaska Native",
            "userSelected": true
          }
        }, {
          "url": "text",
          "valueString": "American Indian or Alaska Native"
        } ]
      }, {
        "url": "http://hl7.org/fhir/us/core/StructureDefinition/us-core-ethnicity",
        "extension": [ {
          "url": "ombCategory",
          "valueCoding": {
            "system": "urn:oid:2.16.840.1.113883.6.238",
            "code": "2135-2",
            "display": "Hispanic or Latino",
            "userSelected": true
          }
        }, {
          "url": "text",
          "valueString": "Hispanic or Latino"
        } ]
      } ],
      "identifier": [ {
        "type": {
          "coding": [ {
            "system": "http://terminology.hl7.org/CodeSystem/v2-0203",
            "code": "MR"
          } ]
        },
        "system": "https://bonnie-fhir.healthit.gov/",
        "value": "633c9d030968f8012250fc88"
      } ],
      "active": true,
      "name": [ {
        "use": "usual",
        "family": "DENEXPass",
        "given": [ "CMOdurED_ED<1hrNoObsBFEnc" ]
      } ],
      "gender": "female",
      "birthDate": "1986-09-18"
    },
    "request": {
      "method": "PUT",
      "url": "Patient/bfa4b097-4c27-4046-a036-d97267e94113"
    }
  }, {
    "fullUrl": "https://madie.cms.gov/Condition/f73293a3-ed40-484b-8357-46c17fc1c97a",
    "resource": {
      "resourceType": "Condition",
      "id": "f73293a3-ed40-484b-8357-46c17fc1c97a",
      "meta": {
        "profile": [ "http://hl7.org/fhir/us/qicore/StructureDefinition/qicore-condition-problems-health-concerns" ]
      },
      "clinicalStatus": {
        "coding": [ {
          "system": "http://terminology.hl7.org/CodeSystem/condition-clinical",
          "code": "inactive"
        } ]
      },
      "verificationStatus": {
        "coding": [ {
          "system": "http://terminology.hl7.org/CodeSystem/condition-ver-status",
          "code": "confirmed"
        } ]
      },
      "category": [ {
        "coding": [ {
          "system": "http://terminology.hl7.org/CodeSystem/condition-category",
          "code": "problem-list-item"
        } ]
      } ],
      "code": {
        "coding": [ {
          "system": "http://hl7.org/fhir/sid/icd-10-cm",
          "code": "I48.20"
        }, {
          "system": "http://hl7.org/fhir/sid/icd-10-cm",
          "code": "I48.0"
        }, {
          "system": "http://snomed.info/sct",
          "code": "5370000"
        } ]
      },
      "subject": {
        "reference": "Patient/bfa4b097-4c27-4046-a036-d97267e94113"
      },
      "onsetDateTime": "2026-10-01T09:01:00.000Z",
      "abatementDateTime": "2026-10-12T00:15:00.000Z"
    },
    "request": {
      "method": "PUT",
      "url": "Condition/f73293a3-ed40-484b-8357-46c17fc1c97a"
    }
  }, {
    "fullUrl": "https://madie.cms.gov/Encounter/9ee2fe1c-bf05-426d-a89d-f5da05d47900",
    "resource": {
      "resourceType": "Encounter",
      "id": "9ee2fe1c-bf05-426d-a89d-f5da05d47900",
      "meta": {
        "profile": [ "http://hl7.org/fhir/us/qicore/StructureDefinition/qicore-encounter" ]
      },
      "status": "finished",
      "class": {
        "system": "http://terminology.hl7.org/CodeSystem/v3-ActCode",
        "code": "EMER",
        "display": "emergency"
      },
      "type": [ {
        "coding": [ {
          "system": "http://snomed.info/sct",
          "code": "4525004"
        } ]
      } ],
      "subject": {
        "reference": "Patient/bfa4b097-4c27-4046-a036-d97267e94113"
      },
      "period": {
        "start": "2026-10-01T09:01:00.000Z",
        "end": "2026-10-01T12:15:00.000Z"
      },
      "length": {
        "value": 0,
        "unit": "days"
      },
      "reasonReference": [ {
        "reference": "Condition/f73293a3-ed40-484b-8357-46c17fc1c97a"
      } ]
    },
    "request": {
      "method": "PUT",
      "url": "Encounter/9ee2fe1c-bf05-426d-a89d-f5da05d47900"
    }
  }, {
    "fullUrl": "https://madie.cms.gov/Claim/13f5c8a0-3f20-444c-999d-f65a919b0fb6",
    "resource": {
      "resourceType": "Claim",
      "id": "13f5c8a0-3f20-444c-999d-f65a919b0fb6",
      "meta": {
        "profile": [ "http://hl7.org/fhir/us/qicore/StructureDefinition/qicore-claim" ]
      },
      "status": "active",
      "type": {
        "coding": [ {
          "system": "http://terminology.hl7.org/CodeSystem/claim-type",
          "code": "institutional"
        } ]
      },
      "use": "claim",
      "patient": {
        "reference": "Patient/bfa4b097-4c27-4046-a036-d97267e94113"
      },
      "created": "2026-12-01",
      "provider": {
        "reference": "Practitioner/13506b4b-a05f-4a14-8afd-f19fdbf832a0"
      },
      "priority": {
        "coding": [ {
          "system": "http://terminology.hl7.org/CodeSystem/processpriority",
          "code": "normal"
        } ]
      },
      "diagnosis": [ {
        "sequence": 1,
        "diagnosisCodeableConcept": {
          "coding": [ {
            "system": "http://hl7.org/fhir/sid/icd-10-cm",
            "code": "I63.00"
          } ]
        },
        "type": [ {
          "coding": [ {
            "system": "http://terminology.hl7.org/CodeSystem/ex-diagnosistype",
            "code": "principal"
          } ]
        } ]
      } ],
      "insurance": [ {
        "sequence": 1,
        "focal": true,
        "coverage": {
          "reference": "Coverage/5fa041661c76ba66d9959367"
        }
      } ],
      "item": [ {
        "sequence": 1,
        "diagnosisSequence": [ 1 ],
        "productOrService": {
          "coding": [ {
            "system": "http://terminology.hl7.org/CodeSystem/ex-USCLS",
            "code": "99555"
          } ]
        },
        "encounter": [ {
          "reference": "Encounter/0ecf71d8-0946-4081-93d1-f460b717ee99"
        } ]
      } ]
    },
    "request": {
      "method": "PUT",
      "url": "Claim/13f5c8a0-3f20-444c-999d-f65a919b0fb6"
    }
  }, {
    "fullUrl": "https://madie.cms.gov/Encounter/0ecf71d8-0946-4081-93d1-f460b717ee99",
    "resource": {
      "resourceType": "Encounter",
      "id": "0ecf71d8-0946-4081-93d1-f460b717ee99",
      "meta": {
        "profile": [ "http://hl7.org/fhir/us/qicore/StructureDefinition/qicore-encounter" ]
      },
      "status": "finished",
      "class": {
        "system": "http://terminology.hl7.org/CodeSystem/v3-ActCode",
        "code": "IMP",
        "display": "inpatient encounter"
      },
      "type": [ {
        "coding": [ {
          "system": "http://snomed.info/sct",
          "code": "32485007"
        } ]
      } ],
      "subject": {
        "reference": "Patient/bfa4b097-4c27-4046-a036-d97267e94113"
      },
      "period": {
        "start": "2026-10-01T12:16:00.000Z",
        "end": "2026-10-12T00:15:00.000Z"
      },
      "length": {
        "value": 11,
        "unit": "days"
      },
      "reasonReference": [ {
        "reference": "Condition/f73293a3-ed40-484b-8357-46c17fc1c97a"
      } ]
    },
    "request": {
      "method": "PUT",
      "url": "Encounter/0ecf71d8-0946-4081-93d1-f460b717ee99"
    }
  }, {
    "fullUrl": "https://madie.cms.gov/ServiceRequest/bddc4097-e319-4cce-97c5-18d8a117a9f7",
    "resource": {
      "resourceType": "ServiceRequest",
      "id": "bddc4097-e319-4cce-97c5-18d8a117a9f7",
      "meta": {
        "profile": [ "http://hl7.org/fhir/us/qicore/StructureDefinition/qicore-servicerequest" ]
      },
      "status": "active",
      "intent": "order",
      "code": {
        "coding": [ {
          "system": "http://snomed.info/sct",
          "code": "133918004"
        } ]
      },
      "subject": {
        "reference": "Patient/bfa4b097-4c27-4046-a036-d97267e94113"
      },
      "authoredOn": "2026-10-01T09:15:00.000Z"
    },
    "request": {
      "method": "PUT",
      "url": "ServiceRequest/bddc4097-e319-4cce-97c5-18d8a117a9f7"
    }
  }, {
    "fullUrl": "https://madie.cms.gov/Coverage/f5db4e97-b52c-491d-b845-e6197c9302a3",
    "resource": {
      "resourceType": "Coverage",
      "id": "f5db4e97-b52c-491d-b845-e6197c9302a3",
      "meta": {
        "profile": [ "http://hl7.org/fhir/us/qicore/StructureDefinition/qicore-coverage" ]
      },
      "status": "active",
      "subscriberId": "523435",
      "beneficiary": {
        "reference": "Patient/bfa4b097-4c27-4046-a036-d97267e94113"
      },
      "relationship": {
        "coding": [ {
          "system": "http://terminology.hl7.org/CodeSystem/subscriber-relationship",
          "code": "self"
        } ]
      },
      "payor": [ {
        "reference": "Organization/5ad2997a-0a18-4583-8342-53799cc30657"
      } ]
    },
    "request": {
      "method": "PUT",
      "url": "Coverage/f5db4e97-b52c-491d-b845-e6197c9302a3"
    }
  }, {
    "fullUrl": "https://madie.cms.gov/Condition/cc7f75ff-0406-4c2e-8821-f791b7fc55ca",
    "resource": {
      "resourceType": "Condition",
      "id": "cc7f75ff-0406-4c2e-8821-f791b7fc55ca",
      "meta": {
        "profile": [ "http://hl7.org/fhir/us/qicore/StructureDefinition/qicore-condition-encounter-diagnosis" ]
      },
      "clinicalStatus": {
        "coding": [ {
          "system": "http://terminology.hl7.org/CodeSystem/condition-clinical",
          "code": "active"
        } ]
      },
      "verificationStatus": {
        "coding": [ {
          "system": "http://terminology.hl7.org/CodeSystem/condition-ver-status",
          "code": "confirmed"
        } ]
      },
      "category": [ {
        "coding": [ {
          "system": "http://terminology.hl7.org/CodeSystem/condition-category",
          "code": "encounter-diagnosis",
          "display": "Encounter Diagnosis"
        } ]
      } ],
      "code": {
        "coding": [ {
          "system": "http://snomed.info/sct",
          "version": "2021-09",
          "code": "111297002",
          "display": "Nonparalytic stroke (disorder)",
          "userSelected": true
        } ]
      },
      "subject": {
        "reference": "Patient/bfa4b097-4c27-4046-a036-d97267e94113"
      },
      "recordedDate": "2026-10-13T08:00:00.000Z"
    },
    "request": {
      "method": "PUT",
      "url": "Condition/cc7f75ff-0406-4c2e-8821-f791b7fc55ca"
    }
  }, {
    "fullUrl": "https://madie.cms.gov/Organization/5ad2997a-0a18-4583-8342-53799cc30657",
    "resource": {
      "resourceType": "Organization",
      "id": "5ad2997a-0a18-4583-8342-53799cc30657",
      "meta": {
        "profile": [ "http://hl7.org/fhir/us/qicore/StructureDefinition/qicore-organization" ]
      },
      "identifier": [ {
        "use": "temp",
        "system": "urn:oid:2.16.840.1.113883.4.4",
        "value": "21-3259825"
      } ],
      "active": true,
      "type": [ {
        "coding": [ {
          "system": "http://terminology.hl7.org/CodeSystem/organization-type",
          "code": "pay",
          "display": "Payer"
        } ]
      } ],
      "name": "Blue Cross Blue Shield of Texas",
      "telecom": [ {
        "system": "phone",
        "value": "(+1) 972-766-6900"
      } ],
      "address": [ {
        "use": "billing",
        "type": "postal",
        "line": [ "P.O. Box 660044" ],
        "city": "Dallas",
        "state": "TX",
        "postalCode": "75266-0044",
        "country": "USA"
      } ]
    },
    "request": {
      "method": "PUT",
      "url": "Organization/5ad2997a-0a18-4583-8342-53799cc30657"
    }
  }, {
    "fullUrl": "https://madie.cms.gov/Practitioner/13506b4b-a05f-4a14-8afd-f19fdbf832a0",
    "resource": {
      "resourceType": "Practitioner",
      "id": "13506b4b-a05f-4a14-8afd-f19fdbf832a0",
      "meta": {
        "profile": [ "http://hl7.org/fhir/us/qicore/StructureDefinition/qicore-practitioner" ]
      },
      "identifier": [ {
        "system": "http://hl7.org/fhir/sid/us-npi",
        "value": "9999999896"
      } ],
      "name": [ {
        "family": "Evil",
        "prefix": [ "Dr" ]
      } ]
    },
    "request": {
      "method": "PUT",
      "url": "Practitioner/13506b4b-a05f-4a14-8afd-f19fdbf832a0"
    }
  }, {
    "fullUrl": "https://madie.cms.gov/MeasureReport/d9da9184-ee5e-4d6e-bc0d-2c26eef587cb",
    "resource": {
      "resourceType": "MeasureReport",
      "id": "d9da9184-ee5e-4d6e-bc0d-2c26eef587cb",
      "meta": {
        "profile": [ "http://hl7.org/fhir/us/cqfmeasures/StructureDefinition/test-case-cqfm" ]
      },
      "contained": [ {
        "resourceType": "Parameters",
        "id": "4bbd108c-f795-4ae1-bb6f-825bf8453637-parameters",
        "parameter": [ {
          "name": "subject",
          "valueString": "bfa4b097-4c27-4046-a036-d97267e94113"
        } ]
      } ],
      "extension": [ {
        "url": "http://hl7.org/fhir/StructureDefinition/cqf-inputParameters",
        "valueReference": {
          "reference": "#4bbd108c-f795-4ae1-bb6f-825bf8453637-parameters"
        }
      }, {
        "url": "http://hl7.org/fhir/us/cqfmeasures/StructureDefinition/cqfm-testCaseDescription",
        "valueMarkdown": "Patient receives CMO during ED. ED ends 1 min before Obs start and Obs ends 1 min before inpatient start.  Testing HospitalizationWithObservation function"
      } ],
      "modifierExtension": [ {
        "url": "http://hl7.org/fhir/us/cqfmeasures/StructureDefinition/cqfm-isTestCase",
        "valueBoolean": true
      } ],
      "status": "complete",
      "type": "individual",
      "measure": "https://madie.cms.gov/Measure/CMS71FHIRSTKAnticoagAFFlutter",
      "period": {
        "start": "2026-01-01",
        "end": "2026-12-31"
      },
      "group": [ {
        "id": "Group_1",
        "population": [ {
          "id": "InitialPopulation_1",
          "code": {
            "coding": [ {
              "system": "http://terminology.hl7.org/CodeSystem/measure-population",
              "code": "initial-population",
              "display": "Initial Population"
            } ]
          },
          "count": 1
        }, {
          "id": "Denominator_1",
          "code": {
            "coding": [ {
              "system": "http://terminology.hl7.org/CodeSystem/measure-population",
              "code": "denominator",
              "display": "Denominator"
            } ]
          },
          "count": 1
        }, {
          "id": "DenominatorExclusion_1",
          "code": {
            "coding": [ {
              "system": "http://terminology.hl7.org/CodeSystem/measure-population",
              "code": "denominator-exclusion",
              "display": "Denominator Exclusion"
            } ]
          },
          "count": 1
        }, {
          "id": "Numerator_1",
          "code": {
            "coding": [ {
              "system": "http://terminology.hl7.org/CodeSystem/measure-population",
              "code": "numerator",
              "display": "Numerator"
            } ]
          },
          "count": 0
        }, {
          "id": "DenominatorException_1",
          "code": {
            "coding": [ {
              "system": "http://terminology.hl7.org/CodeSystem/measure-population",
              "code": "denominator-exception",
              "display": "Denominator Exception"
            } ]
          },
          "count": 0
        } ],
        "measureScore": {
          "value": 0.0
        }
      } ],
      "evaluatedResource": [ {
        "reference": "Patient/bfa4b097-4c27-4046-a036-d97267e94113"
      }, {
        "reference": "Condition/f73293a3-ed40-484b-8357-46c17fc1c97a"
      }, {
        "reference": "Encounter/9ee2fe1c-bf05-426d-a89d-f5da05d47900"
      }, {
        "reference": "Claim/13f5c8a0-3f20-444c-999d-f65a919b0fb6"
      }, {
        "reference": "Encounter/0ecf71d8-0946-4081-93d1-f460b717ee99"
      }, {
        "reference": "ServiceRequest/bddc4097-e319-4cce-97c5-18d8a117a9f7"
      }, {
        "reference": "Coverage/f5db4e97-b52c-491d-b845-e6197c9302a3"
      }, {
        "reference": "Condition/cc7f75ff-0406-4c2e-8821-f791b7fc55ca"
      }, {
        "reference": "Organization/5ad2997a-0a18-4583-8342-53799cc30657"
      }, {
        "reference": "Practitioner/13506b4b-a05f-4a14-8afd-f19fdbf832a0"
      } ]
    },
    "request": {
      "method": "PUT",
      "url": "MeasureReport/d9da9184-ee5e-4d6e-bc0d-2c26eef587cb"
    }
  } ]
}