{
  "resourceType": "Bundle",
  "id": "633c9d040968f8012250fca0",
  "type": "transaction",
  "entry": [ {
    "fullUrl": "https://madie.cms.gov/Patient/d4ee0f25-8c45-4db4-8795-b7dbdbbc1ecd",
    "resource": {
      "resourceType": "Patient",
      "id": "d4ee0f25-8c45-4db4-8795-b7dbdbbc1ecd",
      "meta": {
        "profile": [ "http://hl7.org/fhir/us/qicore/StructureDefinition/qicore-patient" ]
      },
      "text": {
        "status": "generated",
        "div": "<div xmlns=\"http://www.w3.org/1999/xhtml\"><div class=\"hapiHeaderText\">CMOdurEnc_NoEDObs&lt;1hrBFEnc <b>DENEXPASS </b></div><table class=\"hapiPropertyTable\"><tbody><tr><td>Identifier</td><td>02b0ef2e973beaec0a8b1e55c0dadc67beed7a4482dce2ae4bf0963095b983fa</td></tr><tr><td>Date of birth</td><td><span>18 September 1985</span></td></tr></tbody></table></div>"
      },
      "extension": [ {
        "url": "http://hl7.org/fhir/us/core/StructureDefinition/us-core-race",
        "extension": [ {
          "url": "ombCategory",
          "valueCoding": {
            "system": "urn:oid:2.16.840.1.113883.6.238",
            "code": "1002-5",
            "display": "American Indian or Alaska Native",
            "userSelected": true
          }
        }, {
          "url": "text",
          "valueString": "American Indian or Alaska Native"
        } ]
      }, {
        "url": "http://hl7.org/fhir/us/core/StructureDefinition/us-core-ethnicity",
        "extension": [ {
          "url": "ombCategory",
          "valueCoding": {
            "system": "urn:oid:2.16.840.1.113883.6.238",
            "code": "2135-2",
            "display": "Hispanic or Latino",
            "userSelected": true
          }
        }, {
          "url": "text",
          "valueString": "Hispanic or Latino"
        } ]
      } ],
      "identifier": [ {
        "type": {
          "coding": [ {
            "system": "http://terminology.hl7.org/CodeSystem/v2-0203",
            "code": "MR"
          } ]
        },
        "system": "https://bonnie-fhir.healthit.gov/",
        "value": "633c9d040968f8012250fca0"
      } ],
      "active": true,
      "name": [ {
        "use": "usual",
        "family": "DENEXPass",
        "given": [ "CMOdurEncNoEDObsLT1hrBFEnc" ]
      } ],
      "gender": "female",
      "birthDate": "1986-09-18"
    },
    "request": {
      "method": "PUT",
      "url": "Patient/d4ee0f25-8c45-4db4-8795-b7dbdbbc1ecd"
    }
  }, {
    "fullUrl": "https://madie.cms.gov/Claim/b7276bd2-b754-44e7-81e7-a589c1d85804",
    "resource": {
      "resourceType": "Claim",
      "id": "b7276bd2-b754-44e7-81e7-a589c1d85804",
      "meta": {
        "profile": [ "http://hl7.org/fhir/us/qicore/StructureDefinition/qicore-claim" ]
      },
      "status": "active",
      "type": {
        "coding": [ {
          "system": "http://terminology.hl7.org/CodeSystem/claim-type",
          "code": "institutional"
        } ]
      },
      "use": "claim",
      "patient": {
        "reference": "Patient/d4ee0f25-8c45-4db4-8795-b7dbdbbc1ecd"
      },
      "created": "2026-12-01",
      "provider": {
        "reference": "Practitioner/d953fdb7-db85-4e88-9f85-eb8bcfc0dcdc"
      },
      "priority": {
        "coding": [ {
          "system": "http://terminology.hl7.org/CodeSystem/processpriority",
          "code": "normal"
        } ]
      },
      "diagnosis": [ {
        "sequence": 1,
        "diagnosisCodeableConcept": {
          "coding": [ {
            "system": "http://hl7.org/fhir/sid/icd-10-cm",
            "code": "I63.00"
          } ]
        },
        "type": [ {
          "coding": [ {
            "system": "http://terminology.hl7.org/CodeSystem/ex-diagnosistype",
            "code": "principal"
          } ]
        } ]
      } ],
      "insurance": [ {
        "sequence": 1,
        "focal": true,
        "coverage": {
          "reference": "Coverage/5fa041661c76ba66d9959367"
        }
      } ],
      "item": [ {
        "sequence": 1,
        "diagnosisSequence": [ 1 ],
        "productOrService": {
          "coding": [ {
            "system": "http://terminology.hl7.org/CodeSystem/ex-USCLS",
            "code": "99555"
          } ]
        },
        "encounter": [ {
          "reference": "Encounter/0aee9646-b666-42aa-bc72-3c99087e647c"
        } ]
      } ]
    },
    "request": {
      "method": "PUT",
      "url": "Claim/b7276bd2-b754-44e7-81e7-a589c1d85804"
    }
  }, {
    "fullUrl": "https://madie.cms.gov/Condition/3188c05d-7e14-4197-bf60-c9684f6e9f01",
    "resource": {
      "resourceType": "Condition",
      "id": "3188c05d-7e14-4197-bf60-c9684f6e9f01",
      "meta": {
        "profile": [ "http://hl7.org/fhir/us/qicore/StructureDefinition/qicore-condition-encounter-diagnosis" ]
      },
      "clinicalStatus": {
        "coding": [ {
          "system": "http://terminology.hl7.org/CodeSystem/condition-clinical",
          "code": "inactive"
        } ]
      },
      "verificationStatus": {
        "coding": [ {
          "system": "http://terminology.hl7.org/CodeSystem/condition-ver-status",
          "code": "confirmed"
        } ]
      },
      "category": [ {
        "coding": [ {
          "system": "http://terminology.hl7.org/CodeSystem/condition-category",
          "code": "encounter-diagnosis",
          "display": "Encounter Diagnosis"
        } ]
      } ],
      "code": {
        "coding": [ {
          "system": "http://hl7.org/fhir/sid/icd-10-cm",
          "code": "I48.20"
        }, {
          "system": "http://hl7.org/fhir/sid/icd-10-cm",
          "code": "I48.0"
        }, {
          "system": "http://snomed.info/sct",
          "code": "5370000"
        } ]
      },
      "subject": {
        "reference": "Patient/d4ee0f25-8c45-4db4-8795-b7dbdbbc1ecd"
      },
      "onsetDateTime": "2026-02-11T08:00:00.000Z",
      "abatementDateTime": "2026-02-11T08:15:00.000Z"
    },
    "request": {
      "method": "PUT",
      "url": "Condition/3188c05d-7e14-4197-bf60-c9684f6e9f01"
    }
  }, {
    "fullUrl": "https://madie.cms.gov/Condition/4f692f13-9c53-4160-9919-5900a5aec435",
    "resource": {
      "resourceType": "Condition",
      "id": "4f692f13-9c53-4160-9919-5900a5aec435",
      "meta": {
        "profile": [ "http://hl7.org/fhir/us/qicore/StructureDefinition/qicore-condition-encounter-diagnosis" ]
      },
      "clinicalStatus": {
        "coding": [ {
          "system": "http://terminology.hl7.org/CodeSystem/condition-clinical",
          "code": "inactive"
        } ]
      },
      "verificationStatus": {
        "coding": [ {
          "system": "http://terminology.hl7.org/CodeSystem/condition-ver-status",
          "code": "confirmed"
        } ]
      },
      "category": [ {
        "coding": [ {
          "system": "http://terminology.hl7.org/CodeSystem/condition-category",
          "code": "encounter-diagnosis",
          "display": "Encounter Diagnosis"
        } ]
      } ],
      "code": {
        "coding": [ {
          "system": "http://hl7.org/fhir/sid/icd-10-cm",
          "code": "I48.20"
        }, {
          "system": "http://hl7.org/fhir/sid/icd-10-cm",
          "code": "I48.0"
        }, {
          "system": "http://snomed.info/sct",
          "code": "5370000"
        } ]
      },
      "subject": {
        "reference": "Patient/d4ee0f25-8c45-4db4-8795-b7dbdbbc1ecd"
      },
      "onsetDateTime": "2026-10-01T09:00:00.000Z",
      "abatementDateTime": "2026-10-12T08:15:00.000Z"
    },
    "request": {
      "method": "PUT",
      "url": "Condition/4f692f13-9c53-4160-9919-5900a5aec435"
    }
  }, {
    "fullUrl": "https://madie.cms.gov/Encounter/a4319a33-b808-45c0-be57-f93133b79ad9",
    "resource": {
      "resourceType": "Encounter",
      "id": "a4319a33-b808-45c0-be57-f93133b79ad9",
      "meta": {
        "profile": [ "http://hl7.org/fhir/us/qicore/StructureDefinition/qicore-encounter" ]
      },
      "status": "finished",
      "class": {
        "system": "http://terminology.hl7.org/CodeSystem/v3-ActCode",
        "code": "OBSENC",
        "display": "observation encounter"
      },
      "type": [ {
        "coding": [ {
          "system": "http://snomed.info/sct",
          "code": "448851000124103"
        } ]
      } ],
      "subject": {
        "reference": "Patient/d4ee0f25-8c45-4db4-8795-b7dbdbbc1ecd"
      },
      "period": {
        "start": "2026-10-01T06:00:00.000Z",
        "end": "2026-10-01T09:59:00.000Z"
      },
      "length": {
        "value": 0,
        "unit": "days"
      }
    },
    "request": {
      "method": "PUT",
      "url": "Encounter/a4319a33-b808-45c0-be57-f93133b79ad9"
    }
  }, {
    "fullUrl": "https://madie.cms.gov/Encounter/0aee9646-b666-42aa-bc72-3c99087e647c",
    "resource": {
      "resourceType": "Encounter",
      "id": "0aee9646-b666-42aa-bc72-3c99087e647c",
      "meta": {
        "profile": [ "http://hl7.org/fhir/us/qicore/StructureDefinition/qicore-encounter" ]
      },
      "status": "finished",
      "class": {
        "system": "http://terminology.hl7.org/CodeSystem/v3-ActCode",
        "code": "IMP",
        "display": "inpatient encounter"
      },
      "type": [ {
        "coding": [ {
          "system": "http://snomed.info/sct",
          "code": "32485007"
        } ]
      } ],
      "subject": {
        "reference": "Patient/d4ee0f25-8c45-4db4-8795-b7dbdbbc1ecd"
      },
      "period": {
        "start": "2026-10-01T10:00:00.000Z",
        "end": "2026-10-12T08:15:00.000Z"
      },
      "length": {
        "value": 11,
        "unit": "days"
      },
      "reasonReference": [ {
        "reference": "Condition/3188c05d-7e14-4197-bf60-c9684f6e9f01"
      } ]
    },
    "request": {
      "method": "PUT",
      "url": "Encounter/0aee9646-b666-42aa-bc72-3c99087e647c"
    }
  }, {
    "fullUrl": "https://madie.cms.gov/ServiceRequest/4b9fd637-84ba-4f7e-a07a-a94599e8c8f1",
    "resource": {
      "resourceType": "ServiceRequest",
      "id": "4b9fd637-84ba-4f7e-a07a-a94599e8c8f1",
      "meta": {
        "profile": [ "http://hl7.org/fhir/us/qicore/StructureDefinition/qicore-servicerequest" ]
      },
      "status": "active",
      "intent": "order",
      "code": {
        "coding": [ {
          "system": "http://snomed.info/sct",
          "code": "133918004"
        } ]
      },
      "subject": {
        "reference": "Patient/d4ee0f25-8c45-4db4-8795-b7dbdbbc1ecd"
      },
      "authoredOn": "2026-10-03T00:00:00.000Z"
    },
    "request": {
      "method": "PUT",
      "url": "ServiceRequest/4b9fd637-84ba-4f7e-a07a-a94599e8c8f1"
    }
  }, {
    "fullUrl": "https://madie.cms.gov/Coverage/10b9d65d-4c3f-40fa-8f87-f330cc262ba8",
    "resource": {
      "resourceType": "Coverage",
      "id": "10b9d65d-4c3f-40fa-8f87-f330cc262ba8",
      "status": "active",
      "subscriberId": "523435",
      "beneficiary": {
        "reference": "Patient/d4ee0f25-8c45-4db4-8795-b7dbdbbc1ecd"
      },
      "relationship": {
        "coding": [ {
          "system": "http://terminology.hl7.org/CodeSystem/subscriber-relationship",
          "code": "self"
        } ]
      },
      "period": {
        "start": "1986-09-18T08:00:00.000Z"
      },
      "payor": [ {
        "reference": "Organization/56c93d73-9525-40ae-86f9-44f45ec336fd"
      } ]
    },
    "request": {
      "method": "PUT",
      "url": "Coverage/10b9d65d-4c3f-40fa-8f87-f330cc262ba8"
    }
  }, {
    "fullUrl": "https://madie.cms.gov/Condition/4fd1e29a-45b3-4756-8167-5628b767c65a",
    "resource": {
      "resourceType": "Condition",
      "id": "4fd1e29a-45b3-4756-8167-5628b767c65a",
      "meta": {
        "profile": [ "http://hl7.org/fhir/us/qicore/StructureDefinition/qicore-condition-encounter-diagnosis" ]
      },
      "clinicalStatus": {
        "coding": [ {
          "system": "http://terminology.hl7.org/CodeSystem/condition-clinical",
          "code": "active"
        } ]
      },
      "verificationStatus": {
        "coding": [ {
          "system": "http://terminology.hl7.org/CodeSystem/condition-ver-status",
          "code": "confirmed"
        } ]
      },
      "category": [ {
        "coding": [ {
          "system": "http://terminology.hl7.org/CodeSystem/condition-category",
          "code": "encounter-diagnosis",
          "display": "Encounter Diagnosis"
        } ]
      } ],
      "code": {
        "coding": [ {
          "system": "http://snomed.info/sct",
          "version": "2021-09",
          "code": "111297002",
          "display": "Nonparalytic stroke (disorder)",
          "userSelected": true
        } ]
      },
      "subject": {
        "reference": "Patient/d4ee0f25-8c45-4db4-8795-b7dbdbbc1ecd"
      },
      "recordedDate": "2026-10-13T08:00:00.000Z"
    },
    "request": {
      "method": "PUT",
      "url": "Condition/4fd1e29a-45b3-4756-8167-5628b767c65a"
    }
  }, {
    "fullUrl": "https://madie.cms.gov/Organization/56c93d73-9525-40ae-86f9-44f45ec336fd",
    "resource": {
      "resourceType": "Organization",
      "id": "56c93d73-9525-40ae-86f9-44f45ec336fd",
      "meta": {
        "profile": [ "http://hl7.org/fhir/us/qicore/StructureDefinition/qicore-organization" ]
      },
      "identifier": [ {
        "use": "temp",
        "system": "urn:oid:2.16.840.1.113883.4.4",
        "value": "21-3259825"
      } ],
      "active": true,
      "type": [ {
        "coding": [ {
          "system": "http://terminology.hl7.org/CodeSystem/organization-type",
          "code": "pay",
          "display": "Payer"
        } ]
      } ],
      "name": "Blue Cross Blue Shield of Texas",
      "telecom": [ {
        "system": "phone",
        "value": "(+1) 972-766-6900"
      } ],
      "address": [ {
        "use": "billing",
        "type": "postal",
        "line": [ "P.O. Box 660044" ],
        "city": "Dallas",
        "state": "TX",
        "postalCode": "75266-0044",
        "country": "USA"
      } ]
    },
    "request": {
      "method": "PUT",
      "url": "Organization/56c93d73-9525-40ae-86f9-44f45ec336fd"
    }
  }, {
    "fullUrl": "https://madie.cms.gov/Practitioner/d953fdb7-db85-4e88-9f85-eb8bcfc0dcdc",
    "resource": {
      "resourceType": "Practitioner",
      "id": "d953fdb7-db85-4e88-9f85-eb8bcfc0dcdc",
      "meta": {
        "profile": [ "http://hl7.org/fhir/us/qicore/StructureDefinition/qicore-practitioner" ]
      },
      "identifier": [ {
        "system": "http://hl7.org/fhir/sid/us-npi",
        "value": "9999999896"
      } ],
      "name": [ {
        "family": "Evil",
        "prefix": [ "Dr" ]
      } ]
    },
    "request": {
      "method": "PUT",
      "url": "Practitioner/d953fdb7-db85-4e88-9f85-eb8bcfc0dcdc"
    }
  }, {
    "fullUrl": "https://madie.cms.gov/MeasureReport/f18bca3a-a1ab-4cc6-a24e-dff31a169c45",
    "resource": {
      "resourceType": "MeasureReport",
      "id": "f18bca3a-a1ab-4cc6-a24e-dff31a169c45",
      "meta": {
        "profile": [ "http://hl7.org/fhir/us/cqfmeasures/StructureDefinition/test-case-cqfm" ]
      },
      "contained": [ {
        "resourceType": "Parameters",
        "id": "ea43e625-949c-4ddf-ad35-4a6c492193b7-parameters",
        "parameter": [ {
          "name": "subject",
          "valueString": "d4ee0f25-8c45-4db4-8795-b7dbdbbc1ecd"
        } ]
      } ],
      "extension": [ {
        "url": "http://hl7.org/fhir/StructureDefinition/cqf-inputParameters",
        "valueReference": {
          "reference": "#ea43e625-949c-4ddf-ad35-4a6c492193b7-parameters"
        }
      }, {
        "url": "http://hl7.org/fhir/us/cqfmeasures/StructureDefinition/cqfm-testCaseDescription",
        "valueMarkdown": "Patient receives CMO during inpatient encounter No ED. Observation ends 1 minute before inpatient encounter start. Testing HospitalizationWithObservation function.\n"
      } ],
      "modifierExtension": [ {
        "url": "http://hl7.org/fhir/us/cqfmeasures/StructureDefinition/cqfm-isTestCase",
        "valueBoolean": true
      } ],
      "status": "complete",
      "type": "individual",
      "measure": "https://madie.cms.gov/Measure/CMS71FHIRSTKAnticoagAFFlutter",
      "period": {
        "start": "2026-01-01",
        "end": "2026-12-31"
      },
      "group": [ {
        "id": "Group_1",
        "population": [ {
          "id": "InitialPopulation_1",
          "code": {
            "coding": [ {
              "system": "http://terminology.hl7.org/CodeSystem/measure-population",
              "code": "initial-population",
              "display": "Initial Population"
            } ]
          },
          "count": 1
        }, {
          "id": "Denominator_1",
          "code": {
            "coding": [ {
              "system": "http://terminology.hl7.org/CodeSystem/measure-population",
              "code": "denominator",
              "display": "Denominator"
            } ]
          },
          "count": 1
        }, {
          "id": "DenominatorExclusion_1",
          "code": {
            "coding": [ {
              "system": "http://terminology.hl7.org/CodeSystem/measure-population",
              "code": "denominator-exclusion",
              "display": "Denominator Exclusion"
            } ]
          },
          "count": 1
        }, {
          "id": "Numerator_1",
          "code": {
            "coding": [ {
              "system": "http://terminology.hl7.org/CodeSystem/measure-population",
              "code": "numerator",
              "display": "Numerator"
            } ]
          },
          "count": 0
        }, {
          "id": "DenominatorException_1",
          "code": {
            "coding": [ {
              "system": "http://terminology.hl7.org/CodeSystem/measure-population",
              "code": "denominator-exception",
              "display": "Denominator Exception"
            } ]
          },
          "count": 0
        } ],
        "measureScore": {
          "value": 0.0
        }
      } ],
      "evaluatedResource": [ {
        "reference": "Patient/d4ee0f25-8c45-4db4-8795-b7dbdbbc1ecd"
      }, {
        "reference": "Claim/b7276bd2-b754-44e7-81e7-a589c1d85804"
      }, {
        "reference": "Condition/3188c05d-7e14-4197-bf60-c9684f6e9f01"
      }, {
        "reference": "Condition/4f692f13-9c53-4160-9919-5900a5aec435"
      }, {
        "reference": "Encounter/a4319a33-b808-45c0-be57-f93133b79ad9"
      }, {
        "reference": "Encounter/0aee9646-b666-42aa-bc72-3c99087e647c"
      }, {
        "reference": "ServiceRequest/4b9fd637-84ba-4f7e-a07a-a94599e8c8f1"
      }, {
        "reference": "Coverage/10b9d65d-4c3f-40fa-8f87-f330cc262ba8"
      }, {
        "reference": "Condition/4fd1e29a-45b3-4756-8167-5628b767c65a"
      }, {
        "reference": "Organization/56c93d73-9525-40ae-86f9-44f45ec336fd"
      }, {
        "reference": "Practitioner/d953fdb7-db85-4e88-9f85-eb8bcfc0dcdc"
      } ]
    },
    "request": {
      "method": "PUT",
      "url": "MeasureReport/f18bca3a-a1ab-4cc6-a24e-dff31a169c45"
    }
  } ]
}