{
  "resourceType": "Bundle",
  "id": "633c9d030968f8012250fc9c",
  "type": "transaction",
  "entry": [ {
    "fullUrl": "https://madie.cms.gov/Patient/3ed947b5-9aba-4bed-aa72-f96b6f3f5082",
    "resource": {
      "resourceType": "Patient",
      "id": "3ed947b5-9aba-4bed-aa72-f96b6f3f5082",
      "meta": {
        "profile": [ "http://hl7.org/fhir/us/qicore/StructureDefinition/qicore-patient" ]
      },
      "text": {
        "status": "generated",
        "div": "<div xmlns=\"http://www.w3.org/1999/xhtml\"><div class=\"hapiHeaderText\">CMOdurEncTM_EDEndTM=ObsTM_ObsEndTM=EncTM <b>DENEXPASS </b></div><table class=\"hapiPropertyTable\"><tbody><tr><td>Identifier</td><td>a33eaee35b35d61ecea21326efe74641</td></tr><tr><td>Date of birth</td><td><span>18 September 1985</span></td></tr></tbody></table></div>"
      },
      "extension": [ {
        "url": "http://hl7.org/fhir/us/core/StructureDefinition/us-core-race",
        "extension": [ {
          "url": "ombCategory",
          "valueCoding": {
            "system": "urn:oid:2.16.840.1.113883.6.238",
            "code": "1002-5",
            "display": "American Indian or Alaska Native",
            "userSelected": true
          }
        }, {
          "url": "text",
          "valueString": "American Indian or Alaska Native"
        } ]
      }, {
        "url": "http://hl7.org/fhir/us/core/StructureDefinition/us-core-ethnicity",
        "extension": [ {
          "url": "ombCategory",
          "valueCoding": {
            "system": "urn:oid:2.16.840.1.113883.6.238",
            "code": "2135-2",
            "display": "Hispanic or Latino",
            "userSelected": true
          }
        }, {
          "url": "text",
          "valueString": "Hispanic or Latino"
        } ]
      } ],
      "identifier": [ {
        "type": {
          "coding": [ {
            "system": "http://terminology.hl7.org/CodeSystem/v2-0203",
            "code": "MR"
          } ]
        },
        "system": "https://bonnie-fhir.healthit.gov/",
        "value": "633c9d030968f8012250fc9c"
      } ],
      "active": true,
      "name": [ {
        "use": "usual",
        "family": "DENEXPass",
        "given": [ "CMOdurEncTMEDEndTMObsTMObsEndTM=EncTM" ]
      } ],
      "gender": "female",
      "birthDate": "1986-09-18"
    },
    "request": {
      "method": "PUT",
      "url": "Patient/3ed947b5-9aba-4bed-aa72-f96b6f3f5082"
    }
  }, {
    "fullUrl": "https://madie.cms.gov/Claim/a25473c3-f3e4-4076-8ab5-7f76502a6250",
    "resource": {
      "resourceType": "Claim",
      "id": "a25473c3-f3e4-4076-8ab5-7f76502a6250",
      "meta": {
        "profile": [ "http://hl7.org/fhir/us/qicore/StructureDefinition/qicore-claim" ]
      },
      "status": "active",
      "type": {
        "coding": [ {
          "system": "http://terminology.hl7.org/CodeSystem/claim-type",
          "code": "institutional"
        } ]
      },
      "use": "claim",
      "patient": {
        "reference": "Patient/3ed947b5-9aba-4bed-aa72-f96b6f3f5082"
      },
      "created": "2026-12-01",
      "provider": {
        "reference": "Practitioner/4d047447-759b-47c4-a762-29739dd14c3a"
      },
      "priority": {
        "coding": [ {
          "system": "http://terminology.hl7.org/CodeSystem/processpriority",
          "code": "normal"
        } ]
      },
      "diagnosis": [ {
        "sequence": 1,
        "diagnosisCodeableConcept": {
          "coding": [ {
            "system": "http://hl7.org/fhir/sid/icd-10-cm",
            "code": "I63.00"
          } ]
        },
        "type": [ {
          "coding": [ {
            "system": "http://terminology.hl7.org/CodeSystem/ex-diagnosistype",
            "code": "principal"
          } ]
        } ]
      } ],
      "insurance": [ {
        "sequence": 1,
        "focal": true,
        "coverage": {
          "reference": "Coverage/5fa041661c76ba66d9959367"
        }
      } ],
      "item": [ {
        "sequence": 1,
        "diagnosisSequence": [ 1 ],
        "productOrService": {
          "coding": [ {
            "system": "http://terminology.hl7.org/CodeSystem/ex-USCLS",
            "code": "99555"
          } ]
        },
        "encounter": [ {
          "reference": "Encounter/b1621f22-8782-43b9-8890-2e22c492c6a6"
        } ]
      } ]
    },
    "request": {
      "method": "PUT",
      "url": "Claim/a25473c3-f3e4-4076-8ab5-7f76502a6250"
    }
  }, {
    "fullUrl": "https://madie.cms.gov/Condition/acdbdefe-9eb1-472d-92a5-adae5ae2daa4",
    "resource": {
      "resourceType": "Condition",
      "id": "acdbdefe-9eb1-472d-92a5-adae5ae2daa4",
      "meta": {
        "profile": [ "http://hl7.org/fhir/us/qicore/StructureDefinition/qicore-condition-encounter-diagnosis" ]
      },
      "clinicalStatus": {
        "coding": [ {
          "system": "http://terminology.hl7.org/CodeSystem/condition-clinical",
          "code": "inactive"
        } ]
      },
      "verificationStatus": {
        "coding": [ {
          "system": "http://terminology.hl7.org/CodeSystem/condition-ver-status",
          "code": "confirmed"
        } ]
      },
      "category": [ {
        "coding": [ {
          "system": "http://terminology.hl7.org/CodeSystem/condition-category",
          "code": "encounter-diagnosis",
          "display": "Encounter Diagnosis"
        } ]
      } ],
      "code": {
        "coding": [ {
          "system": "http://hl7.org/fhir/sid/icd-10-cm",
          "code": "I48.20"
        }, {
          "system": "http://hl7.org/fhir/sid/icd-10-cm",
          "code": "I48.0"
        }, {
          "system": "http://snomed.info/sct",
          "code": "5370000"
        } ]
      },
      "subject": {
        "reference": "Patient/3ed947b5-9aba-4bed-aa72-f96b6f3f5082"
      },
      "onsetDateTime": "2026-10-01T09:00:00.000Z",
      "abatementDateTime": "2026-10-12T00:15:00.000Z"
    },
    "request": {
      "method": "PUT",
      "url": "Condition/acdbdefe-9eb1-472d-92a5-adae5ae2daa4"
    }
  }, {
    "fullUrl": "https://madie.cms.gov/Encounter/17a800bf-c804-4906-bd3c-76b439722ee8",
    "resource": {
      "resourceType": "Encounter",
      "id": "17a800bf-c804-4906-bd3c-76b439722ee8",
      "meta": {
        "profile": [ "http://hl7.org/fhir/us/qicore/StructureDefinition/qicore-encounter" ]
      },
      "status": "finished",
      "class": {
        "system": "http://terminology.hl7.org/CodeSystem/v3-ActCode",
        "code": "EMER",
        "display": "emergency"
      },
      "type": [ {
        "coding": [ {
          "system": "http://snomed.info/sct",
          "code": "4525004"
        } ]
      } ],
      "subject": {
        "reference": "Patient/3ed947b5-9aba-4bed-aa72-f96b6f3f5082"
      },
      "period": {
        "start": "2026-10-01T07:59:00.000Z",
        "end": "2026-10-01T09:00:00.000Z"
      },
      "length": {
        "value": 0,
        "unit": "days"
      }
    },
    "request": {
      "method": "PUT",
      "url": "Encounter/17a800bf-c804-4906-bd3c-76b439722ee8"
    }
  }, {
    "fullUrl": "https://madie.cms.gov/Encounter/c3ce2c60-fa26-45fe-bab7-5a45b404224d",
    "resource": {
      "resourceType": "Encounter",
      "id": "c3ce2c60-fa26-45fe-bab7-5a45b404224d",
      "meta": {
        "profile": [ "http://hl7.org/fhir/us/qicore/StructureDefinition/qicore-encounter" ]
      },
      "status": "finished",
      "class": {
        "system": "http://terminology.hl7.org/CodeSystem/v3-ActCode",
        "code": "OBSENC",
        "display": "observation encounter"
      },
      "type": [ {
        "coding": [ {
          "system": "http://snomed.info/sct",
          "code": "448851000124103"
        } ]
      } ],
      "subject": {
        "reference": "Patient/3ed947b5-9aba-4bed-aa72-f96b6f3f5082"
      },
      "period": {
        "start": "2026-10-01T09:00:00.000Z",
        "end": "2026-10-01T10:00:00.000Z"
      },
      "length": {
        "value": 0,
        "unit": "days"
      }
    },
    "request": {
      "method": "PUT",
      "url": "Encounter/c3ce2c60-fa26-45fe-bab7-5a45b404224d"
    }
  }, {
    "fullUrl": "https://madie.cms.gov/Encounter/b1621f22-8782-43b9-8890-2e22c492c6a6",
    "resource": {
      "resourceType": "Encounter",
      "id": "b1621f22-8782-43b9-8890-2e22c492c6a6",
      "meta": {
        "profile": [ "http://hl7.org/fhir/us/qicore/StructureDefinition/qicore-encounter" ]
      },
      "status": "finished",
      "class": {
        "system": "http://terminology.hl7.org/CodeSystem/v3-ActCode",
        "code": "IMP",
        "display": "inpatient encounter"
      },
      "type": [ {
        "coding": [ {
          "system": "http://snomed.info/sct",
          "code": "32485007"
        } ]
      } ],
      "subject": {
        "reference": "Patient/3ed947b5-9aba-4bed-aa72-f96b6f3f5082"
      },
      "period": {
        "start": "2026-10-01T10:00:00.000Z",
        "end": "2026-10-12T00:15:00.000Z"
      },
      "length": {
        "value": 11,
        "unit": "days"
      },
      "reasonReference": [ {
        "reference": "Condition/acdbdefe-9eb1-472d-92a5-adae5ae2daa4"
      } ]
    },
    "request": {
      "method": "PUT",
      "url": "Encounter/b1621f22-8782-43b9-8890-2e22c492c6a6"
    }
  }, {
    "fullUrl": "https://madie.cms.gov/ServiceRequest/7ccc421c-af57-46cd-9b9c-2192a764aee0",
    "resource": {
      "resourceType": "ServiceRequest",
      "id": "7ccc421c-af57-46cd-9b9c-2192a764aee0",
      "meta": {
        "profile": [ "http://hl7.org/fhir/us/qicore/StructureDefinition/qicore-servicerequest" ]
      },
      "status": "active",
      "intent": "order",
      "code": {
        "coding": [ {
          "system": "http://snomed.info/sct",
          "code": "133918004"
        } ]
      },
      "subject": {
        "reference": "Patient/3ed947b5-9aba-4bed-aa72-f96b6f3f5082"
      },
      "authoredOn": "2026-10-01T10:00:00.000Z"
    },
    "request": {
      "method": "PUT",
      "url": "ServiceRequest/7ccc421c-af57-46cd-9b9c-2192a764aee0"
    }
  }, {
    "fullUrl": "https://madie.cms.gov/Coverage/d05d81a4-76f3-4497-8c8e-b0be137beba2",
    "resource": {
      "resourceType": "Coverage",
      "id": "d05d81a4-76f3-4497-8c8e-b0be137beba2",
      "status": "active",
      "subscriberId": "523435",
      "beneficiary": {
        "reference": "Patient/3ed947b5-9aba-4bed-aa72-f96b6f3f5082"
      },
      "relationship": {
        "coding": [ {
          "system": "http://terminology.hl7.org/CodeSystem/subscriber-relationship",
          "code": "self"
        } ]
      },
      "period": {
        "start": "1986-09-18T08:00:00.000Z"
      },
      "payor": [ {
        "reference": "Organization/a3c879e5-6220-4a0f-9f86-08446b115062"
      } ]
    },
    "request": {
      "method": "PUT",
      "url": "Coverage/d05d81a4-76f3-4497-8c8e-b0be137beba2"
    }
  }, {
    "fullUrl": "https://madie.cms.gov/Condition/165a00ee-45be-4add-8937-7c71adfb1f09",
    "resource": {
      "resourceType": "Condition",
      "id": "165a00ee-45be-4add-8937-7c71adfb1f09",
      "meta": {
        "profile": [ "http://hl7.org/fhir/us/qicore/StructureDefinition/qicore-condition-encounter-diagnosis" ]
      },
      "clinicalStatus": {
        "coding": [ {
          "system": "http://terminology.hl7.org/CodeSystem/condition-clinical",
          "code": "active"
        } ]
      },
      "verificationStatus": {
        "coding": [ {
          "system": "http://terminology.hl7.org/CodeSystem/condition-ver-status",
          "code": "confirmed"
        } ]
      },
      "category": [ {
        "coding": [ {
          "system": "http://terminology.hl7.org/CodeSystem/condition-category",
          "code": "encounter-diagnosis",
          "display": "Encounter Diagnosis"
        } ]
      } ],
      "code": {
        "coding": [ {
          "system": "http://snomed.info/sct",
          "version": "2021-09",
          "code": "111297002",
          "display": "Nonparalytic stroke (disorder)",
          "userSelected": true
        } ]
      },
      "subject": {
        "reference": "Patient/3ed947b5-9aba-4bed-aa72-f96b6f3f5082"
      },
      "recordedDate": "2026-10-13T08:00:00.000Z"
    },
    "request": {
      "method": "PUT",
      "url": "Condition/165a00ee-45be-4add-8937-7c71adfb1f09"
    }
  }, {
    "fullUrl": "https://madie.cms.gov/Organization/a3c879e5-6220-4a0f-9f86-08446b115062",
    "resource": {
      "resourceType": "Organization",
      "id": "a3c879e5-6220-4a0f-9f86-08446b115062",
      "meta": {
        "profile": [ "http://hl7.org/fhir/us/qicore/StructureDefinition/qicore-organization" ]
      },
      "identifier": [ {
        "use": "temp",
        "system": "urn:oid:2.16.840.1.113883.4.4",
        "value": "21-3259825"
      } ],
      "active": true,
      "type": [ {
        "coding": [ {
          "system": "http://terminology.hl7.org/CodeSystem/organization-type",
          "code": "pay",
          "display": "Payer"
        } ]
      } ],
      "name": "Blue Cross Blue Shield of Texas",
      "telecom": [ {
        "system": "phone",
        "value": "(+1) 972-766-6900"
      } ],
      "address": [ {
        "use": "billing",
        "type": "postal",
        "line": [ "P.O. Box 660044" ],
        "city": "Dallas",
        "state": "TX",
        "postalCode": "75266-0044",
        "country": "USA"
      } ]
    },
    "request": {
      "method": "PUT",
      "url": "Organization/a3c879e5-6220-4a0f-9f86-08446b115062"
    }
  }, {
    "fullUrl": "https://madie.cms.gov/Practitioner/4d047447-759b-47c4-a762-29739dd14c3a",
    "resource": {
      "resourceType": "Practitioner",
      "id": "4d047447-759b-47c4-a762-29739dd14c3a",
      "meta": {
        "profile": [ "http://hl7.org/fhir/us/qicore/StructureDefinition/qicore-practitioner" ]
      },
      "identifier": [ {
        "system": "http://hl7.org/fhir/sid/us-npi",
        "value": "9999999896"
      } ],
      "name": [ {
        "family": "Evil",
        "prefix": [ "Dr" ]
      } ]
    },
    "request": {
      "method": "PUT",
      "url": "Practitioner/4d047447-759b-47c4-a762-29739dd14c3a"
    }
  }, {
    "fullUrl": "https://madie.cms.gov/MeasureReport/fcff4d5d-0006-4628-9ae9-c4dca0521dc7",
    "resource": {
      "resourceType": "MeasureReport",
      "id": "fcff4d5d-0006-4628-9ae9-c4dca0521dc7",
      "meta": {
        "profile": [ "http://hl7.org/fhir/us/cqfmeasures/StructureDefinition/test-case-cqfm" ]
      },
      "contained": [ {
        "resourceType": "Parameters",
        "id": "c02d83b7-c34a-44a2-b35f-c2e0c3897a25-parameters",
        "parameter": [ {
          "name": "subject",
          "valueString": "3ed947b5-9aba-4bed-aa72-f96b6f3f5082"
        } ]
      } ],
      "extension": [ {
        "url": "http://hl7.org/fhir/StructureDefinition/cqf-inputParameters",
        "valueReference": {
          "reference": "#c02d83b7-c34a-44a2-b35f-c2e0c3897a25-parameters"
        }
      }, {
        "url": "http://hl7.org/fhir/us/cqfmeasures/StructureDefinition/cqfm-testCaseDescription",
        "valueMarkdown": "Patient receives CMO during inpatient encounter. ED ends on Observation start and Obs ends on inpatient encounter start. Testing HospitalizationWithObservation function.\n"
      } ],
      "modifierExtension": [ {
        "url": "http://hl7.org/fhir/us/cqfmeasures/StructureDefinition/cqfm-isTestCase",
        "valueBoolean": true
      } ],
      "status": "complete",
      "type": "individual",
      "measure": "https://madie.cms.gov/Measure/CMS71FHIRSTKAnticoagAFFlutter",
      "period": {
        "start": "2026-01-01",
        "end": "2026-12-31"
      },
      "group": [ {
        "id": "Group_1",
        "population": [ {
          "id": "InitialPopulation_1",
          "code": {
            "coding": [ {
              "system": "http://terminology.hl7.org/CodeSystem/measure-population",
              "code": "initial-population",
              "display": "Initial Population"
            } ]
          },
          "count": 1
        }, {
          "id": "Denominator_1",
          "code": {
            "coding": [ {
              "system": "http://terminology.hl7.org/CodeSystem/measure-population",
              "code": "denominator",
              "display": "Denominator"
            } ]
          },
          "count": 1
        }, {
          "id": "DenominatorExclusion_1",
          "code": {
            "coding": [ {
              "system": "http://terminology.hl7.org/CodeSystem/measure-population",
              "code": "denominator-exclusion",
              "display": "Denominator Exclusion"
            } ]
          },
          "count": 1
        }, {
          "id": "Numerator_1",
          "code": {
            "coding": [ {
              "system": "http://terminology.hl7.org/CodeSystem/measure-population",
              "code": "numerator",
              "display": "Numerator"
            } ]
          },
          "count": 0
        }, {
          "id": "DenominatorException_1",
          "code": {
            "coding": [ {
              "system": "http://terminology.hl7.org/CodeSystem/measure-population",
              "code": "denominator-exception",
              "display": "Denominator Exception"
            } ]
          },
          "count": 0
        } ],
        "measureScore": {
          "value": 0.0
        }
      } ],
      "evaluatedResource": [ {
        "reference": "Patient/3ed947b5-9aba-4bed-aa72-f96b6f3f5082"
      }, {
        "reference": "Claim/a25473c3-f3e4-4076-8ab5-7f76502a6250"
      }, {
        "reference": "Condition/acdbdefe-9eb1-472d-92a5-adae5ae2daa4"
      }, {
        "reference": "Encounter/17a800bf-c804-4906-bd3c-76b439722ee8"
      }, {
        "reference": "Encounter/c3ce2c60-fa26-45fe-bab7-5a45b404224d"
      }, {
        "reference": "Encounter/b1621f22-8782-43b9-8890-2e22c492c6a6"
      }, {
        "reference": "ServiceRequest/7ccc421c-af57-46cd-9b9c-2192a764aee0"
      }, {
        "reference": "Coverage/d05d81a4-76f3-4497-8c8e-b0be137beba2"
      }, {
        "reference": "Condition/165a00ee-45be-4add-8937-7c71adfb1f09"
      }, {
        "reference": "Organization/a3c879e5-6220-4a0f-9f86-08446b115062"
      }, {
        "reference": "Practitioner/4d047447-759b-47c4-a762-29739dd14c3a"
      } ]
    },
    "request": {
      "method": "PUT",
      "url": "MeasureReport/fcff4d5d-0006-4628-9ae9-c4dca0521dc7"
    }
  } ]
}