{
  "resourceType": "Bundle",
  "id": "633c9d030968f8012250fc8f",
  "type": "transaction",
  "entry": [ {
    "fullUrl": "https://madie.cms.gov/Patient/a0d01348-6938-4d7b-8f26-d4643658de9e",
    "resource": {
      "resourceType": "Patient",
      "id": "a0d01348-6938-4d7b-8f26-d4643658de9e",
      "meta": {
        "profile": [ "http://hl7.org/fhir/us/qicore/StructureDefinition/qicore-patient" ]
      },
      "text": {
        "status": "generated",
        "div": "<div xmlns=\"http://www.w3.org/1999/xhtml\"><div class=\"hapiHeaderText\">MedReasonAfterEncEnds <b>DENEXCEPFAIL </b></div><table class=\"hapiPropertyTable\"><tbody><tr><td>Identifier</td><td>a27264b3fcf4a03cc045af78abe18ccf</td></tr><tr><td>Date of birth</td><td><span>23 May 1954</span></td></tr></tbody></table></div>"
      },
      "extension": [ {
        "url": "http://hl7.org/fhir/us/core/StructureDefinition/us-core-race",
        "extension": [ {
          "url": "ombCategory",
          "valueCoding": {
            "system": "urn:oid:2.16.840.1.113883.6.238",
            "code": "1002-5",
            "display": "American Indian or Alaska Native",
            "userSelected": true
          }
        }, {
          "url": "detailed",
          "valueCoding": {
            "system": "urn:oid:2.16.840.1.113883.6.238",
            "code": "2036-2",
            "display": "Filipino"
          }
        }, {
          "url": "text",
          "valueString": "American Indian or Alaska Native"
        } ]
      }, {
        "url": "http://hl7.org/fhir/us/core/StructureDefinition/us-core-ethnicity",
        "extension": [ {
          "url": "ombCategory",
          "valueCoding": {
            "system": "urn:oid:2.16.840.1.113883.6.238",
            "code": "2135-2",
            "display": "Hispanic or Latino",
            "userSelected": true
          }
        }, {
          "url": "text",
          "valueString": "Hispanic or Latino"
        }, {
          "url": "detailed",
          "valueCoding": {
            "system": "urn:oid:2.16.840.1.113883.6.238",
            "code": "2153-5",
            "display": "Mexican American Indian"
          }
        } ]
      } ],
      "identifier": [ {
        "type": {
          "coding": [ {
            "system": "http://terminology.hl7.org/CodeSystem/v2-0203",
            "code": "MR"
          } ]
        },
        "system": "https://bonnie-fhir.healthit.gov/",
        "value": "633c9d030968f8012250fc8f"
      } ],
      "active": true,
      "name": [ {
        "use": "usual",
        "family": "DENEXCEPFail",
        "given": [ "MedReasonAfterEncEnds" ]
      } ],
      "gender": "female",
      "birthDate": "1955-05-23"
    },
    "request": {
      "method": "PUT",
      "url": "Patient/a0d01348-6938-4d7b-8f26-d4643658de9e"
    }
  }, {
    "fullUrl": "https://madie.cms.gov/Encounter/b0d3bd46-fe54-45fa-ae00-10eb6eaba8d5",
    "resource": {
      "resourceType": "Encounter",
      "id": "b0d3bd46-fe54-45fa-ae00-10eb6eaba8d5",
      "meta": {
        "profile": [ "http://hl7.org/fhir/us/qicore/StructureDefinition/qicore-encounter" ]
      },
      "status": "finished",
      "class": {
        "system": "http://terminology.hl7.org/CodeSystem/v3-ActCode",
        "code": "IMP",
        "display": "inpatient encounter"
      },
      "type": [ {
        "coding": [ {
          "system": "http://snomed.info/sct",
          "code": "32485007"
        } ]
      } ],
      "subject": {
        "reference": "Patient/a0d01348-6938-4d7b-8f26-d4643658de9e"
      },
      "period": {
        "start": "2026-11-20T07:16:00.000Z",
        "end": "2026-11-24T08:15:00.000Z"
      },
      "length": {
        "value": 4,
        "unit": "days"
      },
      "reasonReference": [ {
        "reference": "Condition/3d8919f3-5ca7-406f-ad7e-92968ad71b39"
      } ]
    },
    "request": {
      "method": "PUT",
      "url": "Encounter/b0d3bd46-fe54-45fa-ae00-10eb6eaba8d5"
    }
  }, {
    "fullUrl": "https://madie.cms.gov/Claim/91b31da3-b456-4d3c-acf6-da1600183911",
    "resource": {
      "resourceType": "Claim",
      "id": "91b31da3-b456-4d3c-acf6-da1600183911",
      "meta": {
        "profile": [ "http://hl7.org/fhir/us/qicore/StructureDefinition/qicore-claim" ]
      },
      "status": "active",
      "type": {
        "coding": [ {
          "system": "http://terminology.hl7.org/CodeSystem/claim-type",
          "code": "institutional"
        } ]
      },
      "use": "claim",
      "patient": {
        "reference": "Patient/a0d01348-6938-4d7b-8f26-d4643658de9e"
      },
      "created": "2026-12-01",
      "provider": {
        "reference": "Practitioner/practitioner-123456"
      },
      "priority": {
        "coding": [ {
          "system": "http://terminology.hl7.org/CodeSystem/processpriority",
          "code": "normal"
        } ]
      },
      "diagnosis": [ {
        "sequence": 1,
        "diagnosisCodeableConcept": {
          "coding": [ {
            "system": "http://hl7.org/fhir/sid/icd-10-cm",
            "code": "I63.00"
          } ]
        },
        "type": [ {
          "coding": [ {
            "system": "http://terminology.hl7.org/CodeSystem/ex-diagnosistype",
            "code": "principal"
          } ]
        } ]
      } ],
      "insurance": [ {
        "sequence": 1,
        "focal": true,
        "coverage": {
          "reference": "Coverage/5fa041661c76ba66d9959367"
        }
      } ],
      "item": [ {
        "sequence": 1,
        "diagnosisSequence": [ 1 ],
        "productOrService": {
          "coding": [ {
            "system": "http://terminology.hl7.org/CodeSystem/ex-USCLS",
            "code": "99555"
          } ]
        },
        "encounter": [ {
          "reference": "Encounter/b0d3bd46-fe54-45fa-ae00-10eb6eaba8d5"
        } ]
      } ]
    },
    "request": {
      "method": "PUT",
      "url": "Claim/91b31da3-b456-4d3c-acf6-da1600183911"
    }
  }, {
    "fullUrl": "https://madie.cms.gov/MedicationRequest/a380eb48-bbc1-4bb8-b03d-61fc65a7ee96",
    "resource": {
      "resourceType": "MedicationRequest",
      "id": "a380eb48-bbc1-4bb8-b03d-61fc65a7ee96",
      "meta": {
        "profile": [ "http://hl7.org/fhir/us/qicore/StructureDefinition/qicore-medicationnotrequested" ]
      },
      "status": "completed",
      "intent": "order",
      "category": [ {
        "coding": [ {
          "system": "http://terminology.hl7.org/CodeSystem/medicationrequest-category",
          "code": "community"
        } ]
      } ],
      "doNotPerform": true,
      "medicationCodeableConcept": {
        "coding": [ {
          "system": "http://www.nlm.nih.gov/research/umls/rxnorm",
          "code": "1037045"
        } ]
      },
      "subject": {
        "reference": "Patient/a0d01348-6938-4d7b-8f26-d4643658de9e"
      },
      "authoredOn": "2026-11-24T08:16:00.000Z",
      "requester": {
        "reference": "Practitioner/example"
      },
      "reasonCode": [ {
        "coding": [ {
          "system": "http://snomed.info/sct",
          "code": "183932001"
        } ]
      } ]
    },
    "request": {
      "method": "PUT",
      "url": "MedicationRequest/a380eb48-bbc1-4bb8-b03d-61fc65a7ee96"
    }
  }, {
    "fullUrl": "https://madie.cms.gov/Task/da75ed7d-7370-45a5-86f5-8709069a3566",
    "resource": {
      "resourceType": "Task",
      "id": "da75ed7d-7370-45a5-86f5-8709069a3566",
      "meta": {
        "profile": [ "http://hl7.org/fhir/us/qicore/StructureDefinition/qicore-taskrejected" ]
      },
      "status": "rejected",
      "statusReason": {
        "coding": [ {
          "system": "http://snomed.info/sct",
          "code": "183932001",
          "userSelected": true
        } ]
      },
      "intent": "order",
      "code": {
        "coding": [ {
          "system": "http://hl7.org/fhir/CodeSystem/task-code",
          "code": "fulfill"
        } ]
      },
      "focus": {
        "reference": "MedicationRequest/a380eb48-bbc1-4bb8-b03d-61fc65a7ee96"
      },
      "executionPeriod": {
        "start": "2026-11-24T08:16:00.000Z",
        "end": "2026-11-24T08:17:00.000Z"
      }
    },
    "request": {
      "method": "PUT",
      "url": "Task/da75ed7d-7370-45a5-86f5-8709069a3566"
    }
  }, {
    "fullUrl": "https://madie.cms.gov/Coverage/d9832ac8-dc84-46d1-83fb-8d7a1b5ecbbf",
    "resource": {
      "resourceType": "Coverage",
      "id": "d9832ac8-dc84-46d1-83fb-8d7a1b5ecbbf",
      "meta": {
        "profile": [ "http://hl7.org/fhir/us/qicore/StructureDefinition/qicore-coverage" ]
      },
      "status": "active",
      "subscriberId": "523435",
      "beneficiary": {
        "reference": "Patient/a0d01348-6938-4d7b-8f26-d4643658de9e"
      },
      "relationship": {
        "coding": [ {
          "system": "http://terminology.hl7.org/CodeSystem/subscriber-relationship",
          "code": "self"
        } ]
      },
      "payor": [ {
        "reference": "Organization/ed27486c-73e6-46e9-85de-41a13eea7df1"
      } ]
    },
    "request": {
      "method": "PUT",
      "url": "Coverage/d9832ac8-dc84-46d1-83fb-8d7a1b5ecbbf"
    }
  }, {
    "fullUrl": "https://madie.cms.gov/Procedure/772d3ddf-7674-461f-8de7-d834d184d2a1",
    "resource": {
      "resourceType": "Procedure",
      "id": "772d3ddf-7674-461f-8de7-d834d184d2a1",
      "meta": {
        "profile": [ "http://hl7.org/fhir/us/qicore/StructureDefinition/qicore-procedure" ]
      },
      "extension": [ {
        "url": "http://hl7.org/fhir/us/qicore/StructureDefinition/qicore-recorded",
        "valueDateTime": "2014-04-05T13:35:00.000Z"
      } ],
      "status": "completed",
      "code": {
        "coding": [ {
          "system": "http://www.cms.gov/Medicare/Coding/ICD10",
          "code": "02560ZZ"
        }, {
          "system": "http://snomed.info/sct",
          "code": "175095005"
        } ]
      },
      "subject": {
        "reference": "Patient/a0d01348-6938-4d7b-8f26-d4643658de9e"
      },
      "performedPeriod": {
        "start": "2026-11-20T07:15:00.000Z",
        "end": "2026-11-20T07:16:00.000Z"
      }
    },
    "request": {
      "method": "PUT",
      "url": "Procedure/772d3ddf-7674-461f-8de7-d834d184d2a1"
    }
  }, {
    "fullUrl": "https://madie.cms.gov/Condition/3d8919f3-5ca7-406f-ad7e-92968ad71b39",
    "resource": {
      "resourceType": "Condition",
      "id": "3d8919f3-5ca7-406f-ad7e-92968ad71b39",
      "meta": {
        "profile": [ "http://hl7.org/fhir/us/qicore/StructureDefinition/qicore-condition-encounter-diagnosis" ]
      },
      "clinicalStatus": {
        "coding": [ {
          "system": "http://terminology.hl7.org/CodeSystem/condition-clinical",
          "code": "active"
        } ]
      },
      "verificationStatus": {
        "coding": [ {
          "system": "http://terminology.hl7.org/CodeSystem/condition-ver-status",
          "code": "confirmed"
        } ]
      },
      "category": [ {
        "coding": [ {
          "system": "http://terminology.hl7.org/CodeSystem/condition-category",
          "code": "encounter-diagnosis",
          "display": "Encounter Diagnosis"
        } ]
      } ],
      "code": {
        "coding": [ {
          "system": "http://snomed.info/sct",
          "version": "2021-09",
          "code": "111297002",
          "display": "Nonparalytic stroke (disorder)",
          "userSelected": true
        } ]
      },
      "subject": {
        "reference": "Patient/a0d01348-6938-4d7b-8f26-d4643658de9e"
      },
      "recordedDate": "2026-10-13T08:00:00.000Z"
    },
    "request": {
      "method": "PUT",
      "url": "Condition/3d8919f3-5ca7-406f-ad7e-92968ad71b39"
    }
  }, {
    "fullUrl": "https://madie.cms.gov/Organization/ed27486c-73e6-46e9-85de-41a13eea7df1",
    "resource": {
      "resourceType": "Organization",
      "id": "ed27486c-73e6-46e9-85de-41a13eea7df1",
      "meta": {
        "profile": [ "http://hl7.org/fhir/us/qicore/StructureDefinition/qicore-organization" ]
      },
      "identifier": [ {
        "use": "temp",
        "system": "urn:oid:2.16.840.1.113883.4.4",
        "value": "21-3259825"
      } ],
      "active": true,
      "type": [ {
        "coding": [ {
          "system": "http://terminology.hl7.org/CodeSystem/organization-type",
          "code": "pay",
          "display": "Payer"
        } ]
      } ],
      "name": "Blue Cross Blue Shield of Texas",
      "telecom": [ {
        "system": "phone",
        "value": "(+1) 972-766-6900"
      } ],
      "address": [ {
        "use": "billing",
        "type": "postal",
        "line": [ "P.O. Box 660044" ],
        "city": "Dallas",
        "state": "TX",
        "postalCode": "75266-0044",
        "country": "USA"
      } ]
    },
    "request": {
      "method": "PUT",
      "url": "Organization/ed27486c-73e6-46e9-85de-41a13eea7df1"
    }
  }, {
    "fullUrl": "https://madie.cms.gov/MeasureReport/413356b6-dc99-45fe-bf19-8191417aadd9",
    "resource": {
      "resourceType": "MeasureReport",
      "id": "413356b6-dc99-45fe-bf19-8191417aadd9",
      "meta": {
        "profile": [ "http://hl7.org/fhir/us/cqfmeasures/StructureDefinition/test-case-cqfm" ]
      },
      "contained": [ {
        "resourceType": "Parameters",
        "id": "3586da2d-7cac-4933-867d-e493693a59c5-parameters",
        "parameter": [ {
          "name": "subject",
          "valueString": "a0d01348-6938-4d7b-8f26-d4643658de9e"
        } ]
      } ],
      "extension": [ {
        "url": "http://hl7.org/fhir/StructureDefinition/cqf-inputParameters",
        "valueReference": {
          "reference": "#3586da2d-7cac-4933-867d-e493693a59c5-parameters"
        }
      }, {
        "url": "http://hl7.org/fhir/us/cqfmeasures/StructureDefinition/cqfm-testCaseDescription",
        "valueMarkdown": "Patient did not receive anticoagulant on dc due to medical reason, but start date is after end of encounter.\n"
      } ],
      "modifierExtension": [ {
        "url": "http://hl7.org/fhir/us/cqfmeasures/StructureDefinition/cqfm-isTestCase",
        "valueBoolean": true
      } ],
      "status": "complete",
      "type": "individual",
      "measure": "https://madie.cms.gov/Measure/CMS71FHIRSTKAnticoagAFFlutter",
      "period": {
        "start": "2026-01-01",
        "end": "2026-12-31"
      },
      "group": [ {
        "id": "Group_1",
        "population": [ {
          "id": "InitialPopulation_1",
          "code": {
            "coding": [ {
              "system": "http://terminology.hl7.org/CodeSystem/measure-population",
              "code": "initial-population",
              "display": "Initial Population"
            } ]
          },
          "count": 1
        }, {
          "id": "Denominator_1",
          "code": {
            "coding": [ {
              "system": "http://terminology.hl7.org/CodeSystem/measure-population",
              "code": "denominator",
              "display": "Denominator"
            } ]
          },
          "count": 1
        }, {
          "id": "DenominatorExclusion_1",
          "code": {
            "coding": [ {
              "system": "http://terminology.hl7.org/CodeSystem/measure-population",
              "code": "denominator-exclusion",
              "display": "Denominator Exclusion"
            } ]
          },
          "count": 0
        }, {
          "id": "Numerator_1",
          "code": {
            "coding": [ {
              "system": "http://terminology.hl7.org/CodeSystem/measure-population",
              "code": "numerator",
              "display": "Numerator"
            } ]
          },
          "count": 0
        }, {
          "id": "DenominatorException_1",
          "code": {
            "coding": [ {
              "system": "http://terminology.hl7.org/CodeSystem/measure-population",
              "code": "denominator-exception",
              "display": "Denominator Exception"
            } ]
          },
          "count": 0
        } ],
        "measureScore": {
          "value": 0.0
        }
      } ],
      "evaluatedResource": [ {
        "reference": "Patient/a0d01348-6938-4d7b-8f26-d4643658de9e"
      }, {
        "reference": "Encounter/b0d3bd46-fe54-45fa-ae00-10eb6eaba8d5"
      }, {
        "reference": "Claim/91b31da3-b456-4d3c-acf6-da1600183911"
      }, {
        "reference": "MedicationRequest/a380eb48-bbc1-4bb8-b03d-61fc65a7ee96"
      }, {
        "reference": "Task/da75ed7d-7370-45a5-86f5-8709069a3566"
      }, {
        "reference": "Coverage/d9832ac8-dc84-46d1-83fb-8d7a1b5ecbbf"
      }, {
        "reference": "Procedure/772d3ddf-7674-461f-8de7-d834d184d2a1"
      }, {
        "reference": "Condition/3d8919f3-5ca7-406f-ad7e-92968ad71b39"
      }, {
        "reference": "Organization/ed27486c-73e6-46e9-85de-41a13eea7df1"
      } ]
    },
    "request": {
      "method": "PUT",
      "url": "MeasureReport/413356b6-dc99-45fe-bf19-8191417aadd9"
    }
  } ]
}