{
  "resourceType": "Bundle",
  "id": "633c9d030968f8012250fc80",
  "type": "transaction",
  "entry": [ {
    "fullUrl": "https://madie.cms.gov/Patient/c6b15880-138d-42cd-8350-8a16968c246b",
    "resource": {
      "resourceType": "Patient",
      "id": "c6b15880-138d-42cd-8350-8a16968c246b",
      "meta": {
        "profile": [ "http://hl7.org/fhir/us/qicore/StructureDefinition/qicore-patient" ]
      },
      "text": {
        "status": "generated",
        "div": "<div xmlns=\"http://www.w3.org/1999/xhtml\"><div class=\"hapiHeaderText\">CMPdurEnc_NoEDNoObsBFEnc <b>DENEXPASS </b></div><table class=\"hapiPropertyTable\"><tbody><tr><td>Identifier</td><td>669cd2691aaab3d70b8b307e64426a43</td></tr><tr><td>Date of birth</td><td><span>18 September 1985</span></td></tr></tbody></table></div>"
      },
      "extension": [ {
        "url": "http://hl7.org/fhir/us/core/StructureDefinition/us-core-race",
        "extension": [ {
          "url": "ombCategory",
          "valueCoding": {
            "system": "urn:oid:2.16.840.1.113883.6.238",
            "code": "1002-5",
            "display": "American Indian or Alaska Native",
            "userSelected": true
          }
        }, {
          "url": "text",
          "valueString": "American Indian or Alaska Native"
        } ]
      }, {
        "url": "http://hl7.org/fhir/us/core/StructureDefinition/us-core-ethnicity",
        "extension": [ {
          "url": "ombCategory",
          "valueCoding": {
            "system": "urn:oid:2.16.840.1.113883.6.238",
            "code": "2135-2",
            "display": "Hispanic or Latino",
            "userSelected": true
          }
        }, {
          "url": "text",
          "valueString": "Hispanic or Latino"
        } ]
      } ],
      "identifier": [ {
        "type": {
          "coding": [ {
            "system": "http://terminology.hl7.org/CodeSystem/v2-0203",
            "code": "MR"
          } ]
        },
        "system": "https://bonnie-fhir.healthit.gov/",
        "value": "633c9d030968f8012250fc80"
      } ],
      "active": true,
      "name": [ {
        "use": "usual",
        "family": "DENEXPass",
        "given": [ "CMPdurEnc_NoEDNoObsBFEnc" ]
      } ],
      "gender": "female",
      "birthDate": "1986-09-18"
    },
    "request": {
      "method": "PUT",
      "url": "Patient/c6b15880-138d-42cd-8350-8a16968c246b"
    }
  }, {
    "fullUrl": "https://madie.cms.gov/Condition/d36465a3-a992-4c03-a95a-48a21420844c",
    "resource": {
      "resourceType": "Condition",
      "id": "d36465a3-a992-4c03-a95a-48a21420844c",
      "meta": {
        "profile": [ "http://hl7.org/fhir/us/qicore/StructureDefinition/qicore-condition-problems-health-concerns" ]
      },
      "clinicalStatus": {
        "coding": [ {
          "system": "http://terminology.hl7.org/CodeSystem/condition-clinical",
          "code": "inactive"
        } ]
      },
      "verificationStatus": {
        "coding": [ {
          "system": "http://terminology.hl7.org/CodeSystem/condition-ver-status",
          "code": "confirmed"
        } ]
      },
      "category": [ {
        "coding": [ {
          "system": "http://terminology.hl7.org/CodeSystem/condition-category",
          "code": "problem-list-item"
        } ]
      } ],
      "code": {
        "coding": [ {
          "system": "http://hl7.org/fhir/sid/icd-10-cm",
          "code": "I48.20"
        }, {
          "system": "http://hl7.org/fhir/sid/icd-10-cm",
          "code": "I48.0"
        }, {
          "system": "http://snomed.info/sct",
          "code": "5370000"
        } ]
      },
      "subject": {
        "reference": "Patient/c6b15880-138d-42cd-8350-8a16968c246b"
      },
      "onsetDateTime": "2026-10-01T09:00:00.000Z",
      "abatementDateTime": "2026-10-12T00:15:00.000Z"
    },
    "request": {
      "method": "PUT",
      "url": "Condition/d36465a3-a992-4c03-a95a-48a21420844c"
    }
  }, {
    "fullUrl": "https://madie.cms.gov/Encounter/69030fc5-dbf2-4bf4-9584-f5fcf362272c",
    "resource": {
      "resourceType": "Encounter",
      "id": "69030fc5-dbf2-4bf4-9584-f5fcf362272c",
      "meta": {
        "profile": [ "http://hl7.org/fhir/us/qicore/StructureDefinition/qicore-encounter" ]
      },
      "status": "finished",
      "class": {
        "system": "http://terminology.hl7.org/CodeSystem/v3-ActCode",
        "code": "IMP",
        "display": "inpatient encounter"
      },
      "type": [ {
        "coding": [ {
          "system": "http://snomed.info/sct",
          "code": "32485007"
        } ]
      } ],
      "subject": {
        "reference": "Patient/c6b15880-138d-42cd-8350-8a16968c246b"
      },
      "period": {
        "start": "2026-10-01T09:00:00.000Z",
        "end": "2026-10-12T00:15:00.000Z"
      },
      "length": {
        "value": 11,
        "unit": "days"
      },
      "reasonReference": [ {
        "reference": "Condition/d36465a3-a992-4c03-a95a-48a21420844c"
      } ]
    },
    "request": {
      "method": "PUT",
      "url": "Encounter/69030fc5-dbf2-4bf4-9584-f5fcf362272c"
    }
  }, {
    "fullUrl": "https://madie.cms.gov/Procedure/bd730cc6-5e6e-4fdc-ae9b-3bf8530926aa",
    "resource": {
      "resourceType": "Procedure",
      "id": "bd730cc6-5e6e-4fdc-ae9b-3bf8530926aa",
      "meta": {
        "profile": [ "http://hl7.org/fhir/us/qicore/StructureDefinition/qicore-procedure" ]
      },
      "extension": [ {
        "url": "http://hl7.org/fhir/us/qicore/StructureDefinition/qicore-recorded",
        "valueDateTime": "2026-11-19T13:35:00.000Z"
      } ],
      "status": "completed",
      "code": {
        "coding": [ {
          "system": "http://snomed.info/sct",
          "code": "133918004"
        } ]
      },
      "subject": {
        "reference": "Patient/c6b15880-138d-42cd-8350-8a16968c246b"
      },
      "performedPeriod": {
        "start": "2026-10-01T09:00:00.000Z",
        "end": "2026-10-12T00:15:00.000Z"
      }
    },
    "request": {
      "method": "PUT",
      "url": "Procedure/bd730cc6-5e6e-4fdc-ae9b-3bf8530926aa"
    }
  }, {
    "fullUrl": "https://madie.cms.gov/Coverage/ddbd49db-7dfa-4d33-8a6d-3ff4392c6ef0",
    "resource": {
      "resourceType": "Coverage",
      "id": "ddbd49db-7dfa-4d33-8a6d-3ff4392c6ef0",
      "status": "active",
      "subscriberId": "523435",
      "beneficiary": {
        "reference": "Patient/c6b15880-138d-42cd-8350-8a16968c246b"
      },
      "relationship": {
        "coding": [ {
          "system": "http://terminology.hl7.org/CodeSystem/subscriber-relationship",
          "code": "self"
        } ]
      },
      "period": {
        "start": "1986-09-18T08:00:00.000Z"
      },
      "payor": [ {
        "reference": "Organization/ac344728-24cb-4e15-ac28-808f9d558ce8"
      } ]
    },
    "request": {
      "method": "PUT",
      "url": "Coverage/ddbd49db-7dfa-4d33-8a6d-3ff4392c6ef0"
    }
  }, {
    "fullUrl": "https://madie.cms.gov/Condition/cde47a6c-3403-4ea3-a9f6-b42a716ad1d2",
    "resource": {
      "resourceType": "Condition",
      "id": "cde47a6c-3403-4ea3-a9f6-b42a716ad1d2",
      "meta": {
        "profile": [ "http://hl7.org/fhir/us/qicore/StructureDefinition/qicore-condition-encounter-diagnosis" ]
      },
      "clinicalStatus": {
        "coding": [ {
          "system": "http://terminology.hl7.org/CodeSystem/condition-clinical",
          "code": "active"
        } ]
      },
      "verificationStatus": {
        "coding": [ {
          "system": "http://terminology.hl7.org/CodeSystem/condition-ver-status",
          "code": "confirmed"
        } ]
      },
      "category": [ {
        "coding": [ {
          "system": "http://terminology.hl7.org/CodeSystem/condition-category",
          "code": "encounter-diagnosis",
          "display": "Encounter Diagnosis"
        } ]
      } ],
      "code": {
        "coding": [ {
          "system": "http://snomed.info/sct",
          "version": "2021-09",
          "code": "111297002",
          "display": "Nonparalytic stroke (disorder)",
          "userSelected": true
        } ]
      },
      "subject": {
        "reference": "Patient/c6b15880-138d-42cd-8350-8a16968c246b"
      },
      "recordedDate": "2026-10-13T08:00:00.000Z"
    },
    "request": {
      "method": "PUT",
      "url": "Condition/cde47a6c-3403-4ea3-a9f6-b42a716ad1d2"
    }
  }, {
    "fullUrl": "https://madie.cms.gov/Claim/aed87f16-3917-428e-beb6-2a478ba654cd",
    "resource": {
      "resourceType": "Claim",
      "id": "aed87f16-3917-428e-beb6-2a478ba654cd",
      "meta": {
        "profile": [ "http://hl7.org/fhir/us/qicore/StructureDefinition/qicore-claim" ]
      },
      "status": "active",
      "type": {
        "coding": [ {
          "system": "http://terminology.hl7.org/CodeSystem/claim-type",
          "code": "institutional"
        } ]
      },
      "use": "claim",
      "patient": {
        "reference": "Patient/c6b15880-138d-42cd-8350-8a16968c246b"
      },
      "created": "2026-12-01",
      "provider": {
        "reference": "Practitioner/b3b74bfe-102f-4e70-8fe4-8b13b951a019"
      },
      "priority": {
        "coding": [ {
          "system": "http://terminology.hl7.org/CodeSystem/processpriority",
          "code": "normal"
        } ]
      },
      "diagnosis": [ {
        "sequence": 1,
        "diagnosisCodeableConcept": {
          "coding": [ {
            "system": "http://hl7.org/fhir/sid/icd-10-cm",
            "code": "I63.00"
          } ]
        },
        "type": [ {
          "coding": [ {
            "system": "http://terminology.hl7.org/CodeSystem/ex-diagnosistype",
            "code": "principal"
          } ]
        } ]
      } ],
      "insurance": [ {
        "sequence": 1,
        "focal": true,
        "coverage": {
          "reference": "Coverage/5fa041661c76ba66d9959367"
        }
      } ],
      "item": [ {
        "sequence": 1,
        "diagnosisSequence": [ 1 ],
        "productOrService": {
          "coding": [ {
            "system": "http://terminology.hl7.org/CodeSystem/ex-USCLS",
            "code": "99555"
          } ]
        },
        "encounter": [ {
          "reference": "Encounter/69030fc5-dbf2-4bf4-9584-f5fcf362272c"
        } ]
      } ]
    },
    "request": {
      "method": "PUT",
      "url": "Claim/aed87f16-3917-428e-beb6-2a478ba654cd"
    }
  }, {
    "fullUrl": "https://madie.cms.gov/Organization/ac344728-24cb-4e15-ac28-808f9d558ce8",
    "resource": {
      "resourceType": "Organization",
      "id": "ac344728-24cb-4e15-ac28-808f9d558ce8",
      "meta": {
        "profile": [ "http://hl7.org/fhir/us/qicore/StructureDefinition/qicore-organization" ]
      },
      "identifier": [ {
        "use": "temp",
        "system": "urn:oid:2.16.840.1.113883.4.4",
        "value": "21-3259825"
      } ],
      "active": true,
      "type": [ {
        "coding": [ {
          "system": "http://terminology.hl7.org/CodeSystem/organization-type",
          "code": "pay",
          "display": "Payer"
        } ]
      } ],
      "name": "Blue Cross Blue Shield of Texas",
      "telecom": [ {
        "system": "phone",
        "value": "(+1) 972-766-6900"
      } ],
      "address": [ {
        "use": "billing",
        "type": "postal",
        "line": [ "P.O. Box 660044" ],
        "city": "Dallas",
        "state": "TX",
        "postalCode": "75266-0044",
        "country": "USA"
      } ]
    },
    "request": {
      "method": "PUT",
      "url": "Organization/ac344728-24cb-4e15-ac28-808f9d558ce8"
    }
  }, {
    "fullUrl": "https://madie.cms.gov/Practitioner/b3b74bfe-102f-4e70-8fe4-8b13b951a019",
    "resource": {
      "resourceType": "Practitioner",
      "id": "b3b74bfe-102f-4e70-8fe4-8b13b951a019",
      "meta": {
        "profile": [ "http://hl7.org/fhir/us/qicore/StructureDefinition/qicore-practitioner" ]
      },
      "identifier": [ {
        "system": "http://hl7.org/fhir/sid/us-npi",
        "value": "9999999896"
      } ],
      "name": [ {
        "family": "Evil",
        "prefix": [ "Dr" ]
      } ]
    },
    "request": {
      "method": "PUT",
      "url": "Practitioner/b3b74bfe-102f-4e70-8fe4-8b13b951a019"
    }
  }, {
    "fullUrl": "https://madie.cms.gov/MeasureReport/112ac8fd-f5fe-4289-a3b8-10ba7a469a5a",
    "resource": {
      "resourceType": "MeasureReport",
      "id": "112ac8fd-f5fe-4289-a3b8-10ba7a469a5a",
      "meta": {
        "profile": [ "http://hl7.org/fhir/us/cqfmeasures/StructureDefinition/test-case-cqfm" ]
      },
      "contained": [ {
        "resourceType": "Parameters",
        "id": "9c7993dd-4702-4193-9f1a-01566178a6f7-parameters",
        "parameter": [ {
          "name": "subject",
          "valueString": "c6b15880-138d-42cd-8350-8a16968c246b"
        } ]
      } ],
      "extension": [ {
        "url": "http://hl7.org/fhir/StructureDefinition/cqf-inputParameters",
        "valueReference": {
          "reference": "#9c7993dd-4702-4193-9f1a-01566178a6f7-parameters"
        }
      }, {
        "url": "http://hl7.org/fhir/us/cqfmeasures/StructureDefinition/cqfm-testCaseDescription",
        "valueMarkdown": "Patient receives CMP during inpatient encounter. No ED. No Obs. Testing HospitalizationWithObservation function\n"
      } ],
      "modifierExtension": [ {
        "url": "http://hl7.org/fhir/us/cqfmeasures/StructureDefinition/cqfm-isTestCase",
        "valueBoolean": true
      } ],
      "status": "complete",
      "type": "individual",
      "measure": "https://madie.cms.gov/Measure/CMS71FHIRSTKAnticoagAFFlutter",
      "period": {
        "start": "2026-01-01",
        "end": "2026-12-31"
      },
      "group": [ {
        "id": "Group_1",
        "population": [ {
          "id": "InitialPopulation_1",
          "code": {
            "coding": [ {
              "system": "http://terminology.hl7.org/CodeSystem/measure-population",
              "code": "initial-population",
              "display": "Initial Population"
            } ]
          },
          "count": 1
        }, {
          "id": "Denominator_1",
          "code": {
            "coding": [ {
              "system": "http://terminology.hl7.org/CodeSystem/measure-population",
              "code": "denominator",
              "display": "Denominator"
            } ]
          },
          "count": 1
        }, {
          "id": "DenominatorExclusion_1",
          "code": {
            "coding": [ {
              "system": "http://terminology.hl7.org/CodeSystem/measure-population",
              "code": "denominator-exclusion",
              "display": "Denominator Exclusion"
            } ]
          },
          "count": 1
        }, {
          "id": "Numerator_1",
          "code": {
            "coding": [ {
              "system": "http://terminology.hl7.org/CodeSystem/measure-population",
              "code": "numerator",
              "display": "Numerator"
            } ]
          },
          "count": 0
        }, {
          "id": "DenominatorException_1",
          "code": {
            "coding": [ {
              "system": "http://terminology.hl7.org/CodeSystem/measure-population",
              "code": "denominator-exception",
              "display": "Denominator Exception"
            } ]
          },
          "count": 0
        } ],
        "measureScore": {
          "value": 0.0
        }
      } ],
      "evaluatedResource": [ {
        "reference": "Patient/c6b15880-138d-42cd-8350-8a16968c246b"
      }, {
        "reference": "Condition/d36465a3-a992-4c03-a95a-48a21420844c"
      }, {
        "reference": "Encounter/69030fc5-dbf2-4bf4-9584-f5fcf362272c"
      }, {
        "reference": "Procedure/bd730cc6-5e6e-4fdc-ae9b-3bf8530926aa"
      }, {
        "reference": "Coverage/ddbd49db-7dfa-4d33-8a6d-3ff4392c6ef0"
      }, {
        "reference": "Condition/cde47a6c-3403-4ea3-a9f6-b42a716ad1d2"
      }, {
        "reference": "Claim/aed87f16-3917-428e-beb6-2a478ba654cd"
      }, {
        "reference": "Organization/ac344728-24cb-4e15-ac28-808f9d558ce8"
      }, {
        "reference": "Practitioner/b3b74bfe-102f-4e70-8fe4-8b13b951a019"
      } ]
    },
    "request": {
      "method": "PUT",
      "url": "MeasureReport/112ac8fd-f5fe-4289-a3b8-10ba7a469a5a"
    }
  } ]
}