{
  "resourceType": "Bundle",
  "id": "633c9d020968f8012250fc64",
  "type": "transaction",
  "entry": [ {
    "fullUrl": "https://madie.cms.gov/Patient/de03a32b-a1f7-461c-9853-00c2e5586e99",
    "resource": {
      "resourceType": "Patient",
      "id": "de03a32b-a1f7-461c-9853-00c2e5586e99",
      "meta": {
        "profile": [ "http://hl7.org/fhir/us/qicore/StructureDefinition/qicore-patient" ]
      },
      "text": {
        "status": "generated",
        "div": "<div xmlns=\"http://www.w3.org/1999/xhtml\"><div class=\"hapiHeaderText\">AMA <b>DENEXPASS </b></div><table class=\"hapiPropertyTable\"><tbody><tr><td>Identifier</td><td>b38296647323cdc7f628f752ac1b84d0</td></tr><tr><td>Date of birth</td><td><span>31 July 1969</span></td></tr></tbody></table></div>"
      },
      "extension": [ {
        "url": "http://hl7.org/fhir/us/core/StructureDefinition/us-core-race",
        "extension": [ {
          "url": "ombCategory",
          "valueCoding": {
            "system": "urn:oid:2.16.840.1.113883.6.238",
            "code": "1002-5",
            "display": "American Indian or Alaska Native",
            "userSelected": true
          }
        }, {
          "url": "text",
          "valueString": "American Indian or Alaska Native"
        } ]
      }, {
        "url": "http://hl7.org/fhir/us/core/StructureDefinition/us-core-ethnicity",
        "extension": [ {
          "url": "ombCategory",
          "valueCoding": {
            "system": "urn:oid:2.16.840.1.113883.6.238",
            "code": "2135-2",
            "display": "Hispanic or Latino",
            "userSelected": true
          }
        }, {
          "url": "text",
          "valueString": "Hispanic or Latino"
        } ]
      } ],
      "identifier": [ {
        "type": {
          "coding": [ {
            "system": "http://terminology.hl7.org/CodeSystem/v2-0203",
            "code": "MR"
          } ]
        },
        "system": "https://bonnie-fhir.healthit.gov/",
        "value": "633c9d020968f8012250fc64"
      } ],
      "active": true,
      "name": [ {
        "use": "usual",
        "family": "DENEXPass",
        "given": [ "AMA" ]
      } ],
      "gender": "male",
      "birthDate": "1970-07-31"
    },
    "request": {
      "method": "PUT",
      "url": "Patient/de03a32b-a1f7-461c-9853-00c2e5586e99"
    }
  }, {
    "fullUrl": "https://madie.cms.gov/Encounter/a678a633-d1ee-42e4-98b3-5a6c452a2aa2",
    "resource": {
      "resourceType": "Encounter",
      "id": "a678a633-d1ee-42e4-98b3-5a6c452a2aa2",
      "meta": {
        "profile": [ "http://hl7.org/fhir/us/qicore/StructureDefinition/qicore-encounter" ]
      },
      "status": "finished",
      "class": {
        "system": "http://terminology.hl7.org/CodeSystem/v3-ActCode",
        "code": "IMP",
        "display": "inpatient encounter"
      },
      "type": [ {
        "coding": [ {
          "system": "http://snomed.info/sct",
          "code": "32485007"
        } ]
      } ],
      "subject": {
        "reference": "Patient/de03a32b-a1f7-461c-9853-00c2e5586e99"
      },
      "period": {
        "start": "2026-11-20T08:00:00.000Z",
        "end": "2026-11-24T08:15:00.000Z"
      },
      "length": {
        "value": 4,
        "unit": "days"
      },
      "reasonReference": [ {
        "reference": "Condition/244386a5-3090-4605-9f58-e77e422ac6e1"
      } ],
      "hospitalization": {
        "dischargeDisposition": {
          "coding": [ {
            "system": "http://snomed.info/sct",
            "code": "445060000",
            "display": "Left Against Medical Advice"
          } ]
        }
      }
    },
    "request": {
      "method": "PUT",
      "url": "Encounter/a678a633-d1ee-42e4-98b3-5a6c452a2aa2"
    }
  }, {
    "fullUrl": "https://madie.cms.gov/Procedure/803535bc-687f-495b-a2cf-415124b7381e",
    "resource": {
      "resourceType": "Procedure",
      "id": "803535bc-687f-495b-a2cf-415124b7381e",
      "meta": {
        "profile": [ "http://hl7.org/fhir/us/qicore/StructureDefinition/qicore-procedure" ]
      },
      "extension": [ {
        "url": "http://hl7.org/fhir/us/qicore/StructureDefinition/qicore-recorded",
        "valueDateTime": "2014-04-05T13:35:00.000Z"
      } ],
      "status": "completed",
      "code": {
        "coding": [ {
          "system": "http://hl7.org/fhir/sid/icd-10",
          "code": "02560ZZ"
        }, {
          "system": "http://snomed.info/sct",
          "code": "175095005"
        } ]
      },
      "subject": {
        "reference": "Patient/de03a32b-a1f7-461c-9853-00c2e5586e99"
      },
      "performedPeriod": {
        "start": "2026-11-19T08:00:00.000Z",
        "end": "2026-11-20T08:15:00.000Z"
      }
    },
    "request": {
      "method": "PUT",
      "url": "Procedure/803535bc-687f-495b-a2cf-415124b7381e"
    }
  }, {
    "fullUrl": "https://madie.cms.gov/Claim/d27055e6-d487-4d0e-b38e-37254959a61b",
    "resource": {
      "resourceType": "Claim",
      "id": "d27055e6-d487-4d0e-b38e-37254959a61b",
      "meta": {
        "profile": [ "http://hl7.org/fhir/us/qicore/StructureDefinition/qicore-claim" ]
      },
      "status": "active",
      "type": {
        "coding": [ {
          "system": "http://terminology.hl7.org/CodeSystem/claim-type",
          "code": "institutional"
        } ]
      },
      "use": "claim",
      "patient": {
        "reference": "Patient/de03a32b-a1f7-461c-9853-00c2e5586e99"
      },
      "created": "2026-12-01",
      "provider": {
        "reference": "Practitioner/practitioner-123456"
      },
      "priority": {
        "coding": [ {
          "system": "http://terminology.hl7.org/CodeSystem/processpriority",
          "code": "normal"
        } ]
      },
      "diagnosis": [ {
        "sequence": 1,
        "diagnosisCodeableConcept": {
          "coding": [ {
            "system": "http://hl7.org/fhir/sid/icd-10-cm",
            "code": "I63.00"
          } ]
        },
        "type": [ {
          "coding": [ {
            "system": "http://terminology.hl7.org/CodeSystem/ex-diagnosistype",
            "code": "principal"
          } ]
        } ]
      } ],
      "insurance": [ {
        "sequence": 1,
        "focal": true,
        "coverage": {
          "reference": "Coverage/5fa041661c76ba66d9959367"
        }
      } ],
      "item": [ {
        "sequence": 1,
        "diagnosisSequence": [ 1 ],
        "productOrService": {
          "coding": [ {
            "system": "http://terminology.hl7.org/CodeSystem/ex-USCLS",
            "code": "99555"
          } ]
        },
        "encounter": [ {
          "reference": "Encounter/a678a633-d1ee-42e4-98b3-5a6c452a2aa2"
        } ]
      } ]
    },
    "request": {
      "method": "PUT",
      "url": "Claim/d27055e6-d487-4d0e-b38e-37254959a61b"
    }
  }, {
    "fullUrl": "https://madie.cms.gov/Condition/244386a5-3090-4605-9f58-e77e422ac6e1",
    "resource": {
      "resourceType": "Condition",
      "id": "244386a5-3090-4605-9f58-e77e422ac6e1",
      "meta": {
        "profile": [ "http://hl7.org/fhir/us/qicore/StructureDefinition/qicore-condition-encounter-diagnosis" ]
      },
      "clinicalStatus": {
        "coding": [ {
          "system": "http://terminology.hl7.org/CodeSystem/condition-clinical",
          "code": "active"
        } ]
      },
      "verificationStatus": {
        "coding": [ {
          "system": "http://terminology.hl7.org/CodeSystem/condition-ver-status",
          "code": "confirmed"
        } ]
      },
      "category": [ {
        "coding": [ {
          "system": "http://terminology.hl7.org/CodeSystem/condition-category",
          "code": "encounter-diagnosis",
          "display": "Encounter Diagnosis"
        } ]
      } ],
      "code": {
        "coding": [ {
          "system": "http://snomed.info/sct",
          "version": "2021-09",
          "code": "111297002",
          "display": "Nonparalytic stroke (disorder)",
          "userSelected": true
        } ]
      },
      "subject": {
        "reference": "Patient/de03a32b-a1f7-461c-9853-00c2e5586e99"
      },
      "recordedDate": "2026-10-04T08:00:00.000Z"
    },
    "request": {
      "method": "PUT",
      "url": "Condition/244386a5-3090-4605-9f58-e77e422ac6e1"
    }
  }, {
    "fullUrl": "https://madie.cms.gov/Coverage/97621dc2-eaed-4195-95bb-8cce2abcecd3",
    "resource": {
      "resourceType": "Coverage",
      "id": "97621dc2-eaed-4195-95bb-8cce2abcecd3",
      "meta": {
        "profile": [ "http://hl7.org/fhir/us/qicore/StructureDefinition/qicore-coverage" ]
      },
      "status": "active",
      "subscriberId": "523435",
      "beneficiary": {
        "reference": "Patient/de03a32b-a1f7-461c-9853-00c2e5586e99"
      },
      "relationship": {
        "coding": [ {
          "system": "http://terminology.hl7.org/CodeSystem/subscriber-relationship",
          "code": "self"
        } ]
      },
      "payor": [ {
        "reference": "Organization/81bbcc55-a433-4906-af7e-319a86af90c7"
      } ]
    },
    "request": {
      "method": "PUT",
      "url": "Coverage/97621dc2-eaed-4195-95bb-8cce2abcecd3"
    }
  }, {
    "fullUrl": "https://madie.cms.gov/Organization/81bbcc55-a433-4906-af7e-319a86af90c7",
    "resource": {
      "resourceType": "Organization",
      "id": "81bbcc55-a433-4906-af7e-319a86af90c7",
      "meta": {
        "profile": [ "http://hl7.org/fhir/us/qicore/StructureDefinition/qicore-organization" ]
      },
      "identifier": [ {
        "use": "temp",
        "system": "urn:oid:2.16.840.1.113883.4.4",
        "value": "21-3259825"
      } ],
      "active": true,
      "type": [ {
        "coding": [ {
          "system": "http://terminology.hl7.org/CodeSystem/organization-type",
          "code": "pay",
          "display": "Payer"
        } ]
      } ],
      "name": "Blue Cross Blue Shield of Texas",
      "telecom": [ {
        "system": "phone",
        "value": "(+1) 972-766-6900"
      } ],
      "address": [ {
        "use": "billing",
        "type": "postal",
        "line": [ "P.O. Box 660044" ],
        "city": "Dallas",
        "state": "TX",
        "postalCode": "75266-0044",
        "country": "USA"
      } ]
    },
    "request": {
      "method": "PUT",
      "url": "Organization/81bbcc55-a433-4906-af7e-319a86af90c7"
    }
  }, {
    "fullUrl": "https://madie.cms.gov/MeasureReport/57d86a08-056d-4adf-a01e-a6b44dddf5db",
    "resource": {
      "resourceType": "MeasureReport",
      "id": "57d86a08-056d-4adf-a01e-a6b44dddf5db",
      "meta": {
        "profile": [ "http://hl7.org/fhir/us/cqfmeasures/StructureDefinition/test-case-cqfm" ]
      },
      "contained": [ {
        "resourceType": "Parameters",
        "id": "083d5d3d-cad9-4abb-a3c1-153188ab8b91-parameters",
        "parameter": [ {
          "name": "subject",
          "valueString": "de03a32b-a1f7-461c-9853-00c2e5586e99"
        } ]
      } ],
      "extension": [ {
        "url": "http://hl7.org/fhir/StructureDefinition/cqf-inputParameters",
        "valueReference": {
          "reference": "#083d5d3d-cad9-4abb-a3c1-153188ab8b91-parameters"
        }
      }, {
        "url": "http://hl7.org/fhir/us/cqfmeasures/StructureDefinition/cqfm-testCaseDescription",
        "valueMarkdown": "Pass Denominator Exclusions because AMA (Left Against Medical Advice)"
      } ],
      "modifierExtension": [ {
        "url": "http://hl7.org/fhir/us/cqfmeasures/StructureDefinition/cqfm-isTestCase",
        "valueBoolean": true
      } ],
      "status": "complete",
      "type": "individual",
      "measure": "https://madie.cms.gov/Measure/CMS71FHIRSTKAnticoagAFFlutter",
      "period": {
        "start": "2026-01-01",
        "end": "2026-12-31"
      },
      "group": [ {
        "id": "Group_1",
        "population": [ {
          "id": "InitialPopulation_1",
          "code": {
            "coding": [ {
              "system": "http://terminology.hl7.org/CodeSystem/measure-population",
              "code": "initial-population",
              "display": "Initial Population"
            } ]
          },
          "count": 1
        }, {
          "id": "Denominator_1",
          "code": {
            "coding": [ {
              "system": "http://terminology.hl7.org/CodeSystem/measure-population",
              "code": "denominator",
              "display": "Denominator"
            } ]
          },
          "count": 1
        }, {
          "id": "DenominatorExclusion_1",
          "code": {
            "coding": [ {
              "system": "http://terminology.hl7.org/CodeSystem/measure-population",
              "code": "denominator-exclusion",
              "display": "Denominator Exclusion"
            } ]
          },
          "count": 1
        }, {
          "id": "Numerator_1",
          "code": {
            "coding": [ {
              "system": "http://terminology.hl7.org/CodeSystem/measure-population",
              "code": "numerator",
              "display": "Numerator"
            } ]
          },
          "count": 0
        }, {
          "id": "DenominatorException_1",
          "code": {
            "coding": [ {
              "system": "http://terminology.hl7.org/CodeSystem/measure-population",
              "code": "denominator-exception",
              "display": "Denominator Exception"
            } ]
          },
          "count": 0
        } ],
        "measureScore": {
          "value": 0.0
        }
      } ],
      "evaluatedResource": [ {
        "reference": "Patient/de03a32b-a1f7-461c-9853-00c2e5586e99"
      }, {
        "reference": "Encounter/a678a633-d1ee-42e4-98b3-5a6c452a2aa2"
      }, {
        "reference": "Procedure/803535bc-687f-495b-a2cf-415124b7381e"
      }, {
        "reference": "Claim/d27055e6-d487-4d0e-b38e-37254959a61b"
      }, {
        "reference": "Condition/244386a5-3090-4605-9f58-e77e422ac6e1"
      }, {
        "reference": "Coverage/97621dc2-eaed-4195-95bb-8cce2abcecd3"
      }, {
        "reference": "Organization/81bbcc55-a433-4906-af7e-319a86af90c7"
      } ]
    },
    "request": {
      "method": "PUT",
      "url": "MeasureReport/57d86a08-056d-4adf-a01e-a6b44dddf5db"
    }
  } ]
}