{
  "resourceType": "Bundle",
  "id": "633c9d030968f8012250fc6e",
  "type": "transaction",
  "entry": [ {
    "fullUrl": "https://madie.cms.gov/Patient/31d1dbd5-28cf-49d0-a38d-0c84497c8457",
    "resource": {
      "resourceType": "Patient",
      "id": "31d1dbd5-28cf-49d0-a38d-0c84497c8457",
      "meta": {
        "profile": [ "http://hl7.org/fhir/us/qicore/StructureDefinition/qicore-patient" ]
      },
      "text": {
        "status": "generated",
        "div": "<div xmlns=\"http://www.w3.org/1999/xhtml\"><div class=\"hapiHeaderText\">NoIPEncounter <b>IPPFAIL </b></div><table class=\"hapiPropertyTable\"><tbody><tr><td>Identifier</td><td>946910ea4598e45468b2565ed3cdbc9e</td></tr><tr><td>Date of birth</td><td><span>01 December 1960</span></td></tr></tbody></table></div>"
      },
      "extension": [ {
        "url": "http://hl7.org/fhir/us/core/StructureDefinition/us-core-race",
        "extension": [ {
          "url": "ombCategory",
          "valueCoding": {
            "system": "urn:oid:2.16.840.1.113883.6.238",
            "code": "1002-5",
            "display": "American Indian or Alaska Native",
            "userSelected": true
          }
        }, {
          "url": "text",
          "valueString": "American Indian or Alaska Native"
        } ]
      }, {
        "url": "http://hl7.org/fhir/us/core/StructureDefinition/us-core-ethnicity",
        "extension": [ {
          "url": "ombCategory",
          "valueCoding": {
            "system": "urn:oid:2.16.840.1.113883.6.238",
            "code": "2135-2",
            "display": "Hispanic or Latino",
            "userSelected": true
          }
        }, {
          "url": "text",
          "valueString": "Hispanic or Latino"
        } ]
      } ],
      "identifier": [ {
        "type": {
          "coding": [ {
            "system": "http://terminology.hl7.org/CodeSystem/v2-0203",
            "code": "MR"
          } ]
        },
        "system": "https://bonnie-fhir.healthit.gov/",
        "value": "633c9d030968f8012250fc6e"
      } ],
      "active": true,
      "name": [ {
        "use": "usual",
        "family": "IPPFail",
        "given": [ "NoIPEncounter" ]
      } ],
      "gender": "male",
      "birthDate": "1961-12-01"
    },
    "request": {
      "method": "PUT",
      "url": "Patient/31d1dbd5-28cf-49d0-a38d-0c84497c8457"
    }
  }, {
    "fullUrl": "https://madie.cms.gov/Encounter/dd8f5c94-cc08-40b8-8016-8dee9a71887b",
    "resource": {
      "resourceType": "Encounter",
      "id": "dd8f5c94-cc08-40b8-8016-8dee9a71887b",
      "meta": {
        "profile": [ "http://hl7.org/fhir/us/qicore/StructureDefinition/qicore-encounter" ]
      },
      "status": "finished",
      "class": {
        "system": "http://terminology.hl7.org/CodeSystem/v3-ActCode",
        "code": "EMER",
        "display": "emergency"
      },
      "type": [ {
        "coding": [ {
          "system": "http://snomed.info/sct",
          "code": "4525004"
        } ]
      } ],
      "subject": {
        "reference": "Patient/31d1dbd5-28cf-49d0-a38d-0c84497c8457"
      },
      "period": {
        "start": "2026-02-08T08:00:00.000Z",
        "end": "2026-02-08T08:15:00.000Z"
      },
      "length": {
        "value": 0,
        "unit": "days"
      },
      "reasonReference": [ {
        "reference": "Condition/e72ff845-7e48-4418-9eb7-69ff0b56413d"
      } ]
    },
    "request": {
      "method": "PUT",
      "url": "Encounter/dd8f5c94-cc08-40b8-8016-8dee9a71887b"
    }
  }, {
    "fullUrl": "https://madie.cms.gov/Claim/379e3f50-c9e7-484f-a0ec-ce13e63a2b62",
    "resource": {
      "resourceType": "Claim",
      "id": "379e3f50-c9e7-484f-a0ec-ce13e63a2b62",
      "meta": {
        "profile": [ "http://hl7.org/fhir/us/qicore/StructureDefinition/qicore-claim" ]
      },
      "status": "active",
      "type": {
        "coding": [ {
          "system": "http://terminology.hl7.org/CodeSystem/claim-type",
          "code": "institutional"
        } ]
      },
      "use": "claim",
      "patient": {
        "reference": "Patient/31d1dbd5-28cf-49d0-a38d-0c84497c8457"
      },
      "created": "2026-12-01",
      "provider": {
        "reference": "Practitioner/2c5bf631-7792-4610-8059-cfd8ba60daaf"
      },
      "priority": {
        "coding": [ {
          "system": "http://terminology.hl7.org/CodeSystem/processpriority",
          "code": "normal"
        } ]
      },
      "diagnosis": [ {
        "sequence": 1,
        "diagnosisCodeableConcept": {
          "coding": [ {
            "system": "http://hl7.org/fhir/sid/icd-10-cm",
            "code": "I63.00"
          } ]
        },
        "type": [ {
          "coding": [ {
            "system": "http://terminology.hl7.org/CodeSystem/ex-diagnosistype",
            "code": "principal"
          } ]
        } ]
      } ],
      "insurance": [ {
        "sequence": 1,
        "focal": true,
        "coverage": {
          "reference": "Coverage/5fa041661c76ba66d9959367"
        }
      } ],
      "item": [ {
        "sequence": 1,
        "diagnosisSequence": [ 1 ],
        "productOrService": {
          "coding": [ {
            "system": "http://terminology.hl7.org/CodeSystem/ex-USCLS",
            "code": "99555"
          } ]
        },
        "encounter": [ {
          "reference": "Encounter/dd8f5c94-cc08-40b8-8016-8dee9a71887b"
        } ]
      } ]
    },
    "request": {
      "method": "PUT",
      "url": "Claim/379e3f50-c9e7-484f-a0ec-ce13e63a2b62"
    }
  }, {
    "fullUrl": "https://madie.cms.gov/Coverage/c093a0b3-2357-4979-9a35-32259ac21c19",
    "resource": {
      "resourceType": "Coverage",
      "id": "c093a0b3-2357-4979-9a35-32259ac21c19",
      "meta": {
        "profile": [ "http://hl7.org/fhir/us/qicore/StructureDefinition/qicore-coverage" ]
      },
      "status": "active",
      "subscriberId": "523435",
      "beneficiary": {
        "reference": "Patient/31d1dbd5-28cf-49d0-a38d-0c84497c8457"
      },
      "relationship": {
        "coding": [ {
          "system": "http://terminology.hl7.org/CodeSystem/subscriber-relationship",
          "code": "self"
        } ]
      },
      "payor": [ {
        "reference": "Organization/93fb3c06-ea19-422f-9875-4c99d4bea0f3"
      } ]
    },
    "request": {
      "method": "PUT",
      "url": "Coverage/c093a0b3-2357-4979-9a35-32259ac21c19"
    }
  }, {
    "fullUrl": "https://madie.cms.gov/Condition/e72ff845-7e48-4418-9eb7-69ff0b56413d",
    "resource": {
      "resourceType": "Condition",
      "id": "e72ff845-7e48-4418-9eb7-69ff0b56413d",
      "meta": {
        "profile": [ "http://hl7.org/fhir/us/qicore/StructureDefinition/qicore-condition-encounter-diagnosis" ]
      },
      "clinicalStatus": {
        "coding": [ {
          "system": "http://terminology.hl7.org/CodeSystem/condition-clinical",
          "code": "active"
        } ]
      },
      "verificationStatus": {
        "coding": [ {
          "system": "http://terminology.hl7.org/CodeSystem/condition-ver-status",
          "code": "confirmed"
        } ]
      },
      "category": [ {
        "coding": [ {
          "system": "http://terminology.hl7.org/CodeSystem/condition-category",
          "code": "encounter-diagnosis",
          "display": "Encounter Diagnosis"
        } ]
      } ],
      "code": {
        "coding": [ {
          "system": "http://snomed.info/sct",
          "version": "2021-09",
          "code": "111297002",
          "display": "Nonparalytic stroke (disorder)",
          "userSelected": true
        } ]
      },
      "subject": {
        "reference": "Patient/31d1dbd5-28cf-49d0-a38d-0c84497c8457"
      },
      "recordedDate": "2026-10-13T08:00:00.000Z"
    },
    "request": {
      "method": "PUT",
      "url": "Condition/e72ff845-7e48-4418-9eb7-69ff0b56413d"
    }
  }, {
    "fullUrl": "https://madie.cms.gov/Organization/93fb3c06-ea19-422f-9875-4c99d4bea0f3",
    "resource": {
      "resourceType": "Organization",
      "id": "93fb3c06-ea19-422f-9875-4c99d4bea0f3",
      "meta": {
        "profile": [ "http://hl7.org/fhir/us/qicore/StructureDefinition/qicore-organization" ]
      },
      "identifier": [ {
        "use": "temp",
        "system": "urn:oid:2.16.840.1.113883.4.4",
        "value": "21-3259825"
      } ],
      "active": true,
      "type": [ {
        "coding": [ {
          "system": "http://terminology.hl7.org/CodeSystem/organization-type",
          "code": "pay",
          "display": "Payer"
        } ]
      } ],
      "name": "Blue Cross Blue Shield of Texas",
      "telecom": [ {
        "system": "phone",
        "value": "(+1) 972-766-6900"
      } ],
      "address": [ {
        "use": "billing",
        "type": "postal",
        "line": [ "P.O. Box 660044" ],
        "city": "Dallas",
        "state": "TX",
        "postalCode": "75266-0044",
        "country": "USA"
      } ]
    },
    "request": {
      "method": "PUT",
      "url": "Organization/93fb3c06-ea19-422f-9875-4c99d4bea0f3"
    }
  }, {
    "fullUrl": "https://madie.cms.gov/Practitioner/2c5bf631-7792-4610-8059-cfd8ba60daaf",
    "resource": {
      "resourceType": "Practitioner",
      "id": "2c5bf631-7792-4610-8059-cfd8ba60daaf",
      "meta": {
        "profile": [ "http://hl7.org/fhir/us/qicore/StructureDefinition/qicore-practitioner" ]
      },
      "identifier": [ {
        "system": "http://hl7.org/fhir/sid/us-npi",
        "value": "9999999896"
      } ],
      "name": [ {
        "family": "Evil",
        "prefix": [ "Dr" ]
      } ]
    },
    "request": {
      "method": "PUT",
      "url": "Practitioner/2c5bf631-7792-4610-8059-cfd8ba60daaf"
    }
  }, {
    "fullUrl": "https://madie.cms.gov/MeasureReport/ec02c6dc-49a6-49ba-ab2e-3e7dc77336a2",
    "resource": {
      "resourceType": "MeasureReport",
      "id": "ec02c6dc-49a6-49ba-ab2e-3e7dc77336a2",
      "meta": {
        "profile": [ "http://hl7.org/fhir/us/cqfmeasures/StructureDefinition/test-case-cqfm" ]
      },
      "contained": [ {
        "resourceType": "Parameters",
        "id": "2cd43454-0b9d-4532-ae4e-9650932c37cd-parameters",
        "parameter": [ {
          "name": "subject",
          "valueString": "31d1dbd5-28cf-49d0-a38d-0c84497c8457"
        } ]
      } ],
      "extension": [ {
        "url": "http://hl7.org/fhir/StructureDefinition/cqf-inputParameters",
        "valueReference": {
          "reference": "#2cd43454-0b9d-4532-ae4e-9650932c37cd-parameters"
        }
      }, {
        "url": "http://hl7.org/fhir/us/cqfmeasures/StructureDefinition/cqfm-testCaseDescription",
        "valueMarkdown": "ED visit with Principal Dx = Ischemic Stroke. No inpatient encounter \n"
      } ],
      "modifierExtension": [ {
        "url": "http://hl7.org/fhir/us/cqfmeasures/StructureDefinition/cqfm-isTestCase",
        "valueBoolean": true
      } ],
      "status": "complete",
      "type": "individual",
      "measure": "https://madie.cms.gov/Measure/CMS71FHIRSTKAnticoagAFFlutter",
      "period": {
        "start": "2026-01-01",
        "end": "2026-12-31"
      },
      "group": [ {
        "id": "Group_1",
        "population": [ {
          "id": "InitialPopulation_1",
          "code": {
            "coding": [ {
              "system": "http://terminology.hl7.org/CodeSystem/measure-population",
              "code": "initial-population",
              "display": "Initial Population"
            } ]
          },
          "count": 0
        }, {
          "id": "Denominator_1",
          "code": {
            "coding": [ {
              "system": "http://terminology.hl7.org/CodeSystem/measure-population",
              "code": "denominator",
              "display": "Denominator"
            } ]
          },
          "count": 0
        }, {
          "id": "DenominatorExclusion_1",
          "code": {
            "coding": [ {
              "system": "http://terminology.hl7.org/CodeSystem/measure-population",
              "code": "denominator-exclusion",
              "display": "Denominator Exclusion"
            } ]
          },
          "count": 0
        }, {
          "id": "Numerator_1",
          "code": {
            "coding": [ {
              "system": "http://terminology.hl7.org/CodeSystem/measure-population",
              "code": "numerator",
              "display": "Numerator"
            } ]
          },
          "count": 0
        }, {
          "id": "DenominatorException_1",
          "code": {
            "coding": [ {
              "system": "http://terminology.hl7.org/CodeSystem/measure-population",
              "code": "denominator-exception",
              "display": "Denominator Exception"
            } ]
          },
          "count": 0
        } ],
        "measureScore": {
          "value": 0.0
        }
      } ],
      "evaluatedResource": [ {
        "reference": "Patient/31d1dbd5-28cf-49d0-a38d-0c84497c8457"
      }, {
        "reference": "Encounter/dd8f5c94-cc08-40b8-8016-8dee9a71887b"
      }, {
        "reference": "Claim/379e3f50-c9e7-484f-a0ec-ce13e63a2b62"
      }, {
        "reference": "Coverage/c093a0b3-2357-4979-9a35-32259ac21c19"
      }, {
        "reference": "Condition/e72ff845-7e48-4418-9eb7-69ff0b56413d"
      }, {
        "reference": "Organization/93fb3c06-ea19-422f-9875-4c99d4bea0f3"
      }, {
        "reference": "Practitioner/2c5bf631-7792-4610-8059-cfd8ba60daaf"
      } ]
    },
    "request": {
      "method": "PUT",
      "url": "MeasureReport/ec02c6dc-49a6-49ba-ab2e-3e7dc77336a2"
    }
  } ]
}