{
  "resourceType": "Bundle",
  "id": "633c9d030968f8012250fc8b",
  "type": "transaction",
  "entry": [ {
    "fullUrl": "https://madie.cms.gov/Patient/8646b35e-68e3-4932-ae69-0bd7fb4e7a27",
    "resource": {
      "resourceType": "Patient",
      "id": "8646b35e-68e3-4932-ae69-0bd7fb4e7a27",
      "meta": {
        "profile": [ "http://hl7.org/fhir/us/qicore/StructureDefinition/qicore-patient" ]
      },
      "text": {
        "status": "generated",
        "div": "<div xmlns=\"http://www.w3.org/1999/xhtml\"><div class=\"hapiHeaderText\">MedDCAnticoaStartsLT_EncStart <b>NUMERFAIL </b></div><table class=\"hapiPropertyTable\"><tbody><tr><td>Identifier</td><td>f98585d469325120c7402b7bc8149691</td></tr><tr><td>Date of birth</td><td><span>23 May 1954</span></td></tr></tbody></table></div>"
      },
      "extension": [ {
        "url": "http://hl7.org/fhir/us/core/StructureDefinition/us-core-race",
        "extension": [ {
          "url": "ombCategory",
          "valueCoding": {
            "system": "urn:oid:2.16.840.1.113883.6.238",
            "code": "1002-5",
            "display": "American Indian or Alaska Native",
            "userSelected": true
          }
        }, {
          "url": "text",
          "valueString": "American Indian or Alaska Native"
        } ]
      }, {
        "url": "http://hl7.org/fhir/us/core/StructureDefinition/us-core-ethnicity",
        "extension": [ {
          "url": "ombCategory",
          "valueCoding": {
            "system": "urn:oid:2.16.840.1.113883.6.238",
            "code": "2135-2",
            "display": "Hispanic or Latino",
            "userSelected": true
          }
        }, {
          "url": "text",
          "valueString": "Hispanic or Latino"
        } ]
      } ],
      "identifier": [ {
        "type": {
          "coding": [ {
            "system": "http://terminology.hl7.org/CodeSystem/v2-0203",
            "code": "MR"
          } ]
        },
        "system": "https://bonnie-fhir.healthit.gov/",
        "value": "633c9d030968f8012250fc8b"
      } ],
      "active": true,
      "name": [ {
        "use": "usual",
        "family": "NUMERFail",
        "given": [ "MedDCAnticoaStartsLT_EncStart" ]
      } ],
      "gender": "female",
      "birthDate": "1955-05-23"
    },
    "request": {
      "method": "PUT",
      "url": "Patient/8646b35e-68e3-4932-ae69-0bd7fb4e7a27"
    }
  }, {
    "fullUrl": "https://madie.cms.gov/Encounter/af14d13e-2293-424c-916e-d105ecceb6fa",
    "resource": {
      "resourceType": "Encounter",
      "id": "af14d13e-2293-424c-916e-d105ecceb6fa",
      "meta": {
        "profile": [ "http://hl7.org/fhir/us/qicore/StructureDefinition/qicore-encounter" ]
      },
      "status": "finished",
      "class": {
        "system": "http://terminology.hl7.org/CodeSystem/v3-ActCode",
        "code": "IMP",
        "display": "inpatient encounter"
      },
      "type": [ {
        "coding": [ {
          "system": "http://snomed.info/sct",
          "code": "32485007"
        } ]
      } ],
      "subject": {
        "reference": "Patient/8646b35e-68e3-4932-ae69-0bd7fb4e7a27"
      },
      "period": {
        "start": "2026-11-20T08:00:00.000Z",
        "end": "2026-11-24T08:15:00.000Z"
      },
      "length": {
        "value": 4,
        "unit": "days"
      },
      "reasonReference": [ {
        "reference": "Condition/ece7976f-361d-4ee6-ae85-8f97b75dbd20"
      } ]
    },
    "request": {
      "method": "PUT",
      "url": "Encounter/af14d13e-2293-424c-916e-d105ecceb6fa"
    }
  }, {
    "fullUrl": "https://madie.cms.gov/Claim/8442ba86-672e-493a-bcfb-a0a0cd6a3099",
    "resource": {
      "resourceType": "Claim",
      "id": "8442ba86-672e-493a-bcfb-a0a0cd6a3099",
      "meta": {
        "profile": [ "http://hl7.org/fhir/us/qicore/StructureDefinition/qicore-claim" ]
      },
      "status": "active",
      "type": {
        "coding": [ {
          "system": "http://terminology.hl7.org/CodeSystem/claim-type",
          "code": "institutional"
        } ]
      },
      "use": "claim",
      "patient": {
        "reference": "Patient/8646b35e-68e3-4932-ae69-0bd7fb4e7a27"
      },
      "created": "2026-12-01",
      "provider": {
        "reference": "Practitioner/69683971-3c35-4c3d-9928-8d53bce6e525"
      },
      "priority": {
        "coding": [ {
          "system": "http://terminology.hl7.org/CodeSystem/processpriority",
          "code": "normal"
        } ]
      },
      "diagnosis": [ {
        "sequence": 1,
        "diagnosisCodeableConcept": {
          "coding": [ {
            "system": "http://hl7.org/fhir/sid/icd-10-cm",
            "code": "I63.00"
          } ]
        },
        "type": [ {
          "coding": [ {
            "system": "http://terminology.hl7.org/CodeSystem/ex-diagnosistype",
            "code": "principal"
          } ]
        } ]
      } ],
      "insurance": [ {
        "sequence": 1,
        "focal": true,
        "coverage": {
          "reference": "Coverage/5fa041661c76ba66d9959367"
        }
      } ],
      "item": [ {
        "sequence": 1,
        "diagnosisSequence": [ 1 ],
        "productOrService": {
          "coding": [ {
            "system": "http://terminology.hl7.org/CodeSystem/ex-USCLS",
            "code": "99555"
          } ]
        },
        "encounter": [ {
          "reference": "Encounter/af14d13e-2293-424c-916e-d105ecceb6fa"
        } ]
      } ]
    },
    "request": {
      "method": "PUT",
      "url": "Claim/8442ba86-672e-493a-bcfb-a0a0cd6a3099"
    }
  }, {
    "fullUrl": "https://madie.cms.gov/MedicationRequest/603e0f14-cfd3-47e7-b9cc-4740ece67279",
    "resource": {
      "resourceType": "MedicationRequest",
      "id": "603e0f14-cfd3-47e7-b9cc-4740ece67279",
      "meta": {
        "profile": [ "http://hl7.org/fhir/us/qicore/StructureDefinition/qicore-medicationrequest" ]
      },
      "status": "active",
      "intent": "order",
      "medicationCodeableConcept": {
        "coding": [ {
          "system": "http://www.nlm.nih.gov/research/umls/rxnorm",
          "code": "1037045"
        } ]
      },
      "subject": {
        "reference": "Patient/8646b35e-68e3-4932-ae69-0bd7fb4e7a27"
      },
      "authoredOn": "2026-11-20T07:59:00.000Z",
      "requester": {
        "reference": "Practitioner/example"
      }
    },
    "request": {
      "method": "PUT",
      "url": "MedicationRequest/603e0f14-cfd3-47e7-b9cc-4740ece67279"
    }
  }, {
    "fullUrl": "https://madie.cms.gov/Coverage/addb1e67-8b5e-440e-b51c-6a950f032d84",
    "resource": {
      "resourceType": "Coverage",
      "id": "addb1e67-8b5e-440e-b51c-6a950f032d84",
      "meta": {
        "profile": [ "http://hl7.org/fhir/us/qicore/StructureDefinition/qicore-coverage" ]
      },
      "status": "active",
      "subscriberId": "523435",
      "beneficiary": {
        "reference": "Patient/8646b35e-68e3-4932-ae69-0bd7fb4e7a27"
      },
      "relationship": {
        "coding": [ {
          "system": "http://terminology.hl7.org/CodeSystem/subscriber-relationship",
          "code": "self"
        } ]
      },
      "payor": [ {
        "reference": "Organization/663f0a60-cb69-4808-99f5-015f0e9532bf"
      } ]
    },
    "request": {
      "method": "PUT",
      "url": "Coverage/addb1e67-8b5e-440e-b51c-6a950f032d84"
    }
  }, {
    "fullUrl": "https://madie.cms.gov/Procedure/738df3ce-a775-4b1e-bd9f-87c4d056950f",
    "resource": {
      "resourceType": "Procedure",
      "id": "738df3ce-a775-4b1e-bd9f-87c4d056950f",
      "meta": {
        "profile": [ "http://hl7.org/fhir/us/qicore/StructureDefinition/qicore-procedure" ]
      },
      "extension": [ {
        "url": "http://hl7.org/fhir/us/qicore/StructureDefinition/qicore-recorded",
        "valueDateTime": "2026-11-19T13:35:00.000Z"
      } ],
      "status": "completed",
      "code": {
        "coding": [ {
          "system": "http://www.cms.gov/Medicare/Coding/ICD10",
          "code": "02560ZZ"
        }, {
          "system": "http://snomed.info/sct",
          "code": "175095005"
        } ]
      },
      "subject": {
        "reference": "Patient/8646b35e-68e3-4932-ae69-0bd7fb4e7a27"
      },
      "performedPeriod": {
        "start": "2026-11-20T06:00:00.000Z",
        "end": "2026-11-20T07:15:00.000Z"
      }
    },
    "request": {
      "method": "PUT",
      "url": "Procedure/738df3ce-a775-4b1e-bd9f-87c4d056950f"
    }
  }, {
    "fullUrl": "https://madie.cms.gov/Condition/ece7976f-361d-4ee6-ae85-8f97b75dbd20",
    "resource": {
      "resourceType": "Condition",
      "id": "ece7976f-361d-4ee6-ae85-8f97b75dbd20",
      "meta": {
        "profile": [ "http://hl7.org/fhir/us/qicore/StructureDefinition/qicore-condition-encounter-diagnosis" ]
      },
      "clinicalStatus": {
        "coding": [ {
          "system": "http://terminology.hl7.org/CodeSystem/condition-clinical",
          "code": "active"
        } ]
      },
      "verificationStatus": {
        "coding": [ {
          "system": "http://terminology.hl7.org/CodeSystem/condition-ver-status",
          "code": "confirmed"
        } ]
      },
      "category": [ {
        "coding": [ {
          "system": "http://terminology.hl7.org/CodeSystem/condition-category",
          "code": "encounter-diagnosis",
          "display": "Encounter Diagnosis"
        } ]
      } ],
      "code": {
        "coding": [ {
          "system": "http://snomed.info/sct",
          "version": "2021-09",
          "code": "111297002",
          "display": "Nonparalytic stroke (disorder)",
          "userSelected": true
        } ]
      },
      "subject": {
        "reference": "Patient/8646b35e-68e3-4932-ae69-0bd7fb4e7a27"
      },
      "recordedDate": "2026-10-13T08:00:00.000Z"
    },
    "request": {
      "method": "PUT",
      "url": "Condition/ece7976f-361d-4ee6-ae85-8f97b75dbd20"
    }
  }, {
    "fullUrl": "https://madie.cms.gov/Organization/663f0a60-cb69-4808-99f5-015f0e9532bf",
    "resource": {
      "resourceType": "Organization",
      "id": "663f0a60-cb69-4808-99f5-015f0e9532bf",
      "meta": {
        "profile": [ "http://hl7.org/fhir/us/qicore/StructureDefinition/qicore-organization" ]
      },
      "identifier": [ {
        "use": "temp",
        "system": "urn:oid:2.16.840.1.113883.4.4",
        "value": "21-3259825"
      } ],
      "active": true,
      "type": [ {
        "coding": [ {
          "system": "http://terminology.hl7.org/CodeSystem/organization-type",
          "code": "pay",
          "display": "Payer"
        } ]
      } ],
      "name": "Blue Cross Blue Shield of Texas",
      "telecom": [ {
        "system": "phone",
        "value": "(+1) 972-766-6900"
      } ],
      "address": [ {
        "use": "billing",
        "type": "postal",
        "line": [ "P.O. Box 660044" ],
        "city": "Dallas",
        "state": "TX",
        "postalCode": "75266-0044",
        "country": "USA"
      } ]
    },
    "request": {
      "method": "PUT",
      "url": "Organization/663f0a60-cb69-4808-99f5-015f0e9532bf"
    }
  }, {
    "fullUrl": "https://madie.cms.gov/Practitioner/69683971-3c35-4c3d-9928-8d53bce6e525",
    "resource": {
      "resourceType": "Practitioner",
      "id": "69683971-3c35-4c3d-9928-8d53bce6e525",
      "meta": {
        "profile": [ "http://hl7.org/fhir/us/qicore/StructureDefinition/qicore-practitioner" ]
      },
      "identifier": [ {
        "system": "http://hl7.org/fhir/sid/us-npi",
        "value": "9999999896"
      } ],
      "name": [ {
        "family": "Evil",
        "prefix": [ "Dr" ]
      } ]
    },
    "request": {
      "method": "PUT",
      "url": "Practitioner/69683971-3c35-4c3d-9928-8d53bce6e525"
    }
  }, {
    "fullUrl": "https://madie.cms.gov/MeasureReport/10de25b2-2b7a-4b93-833c-2762ed923b75",
    "resource": {
      "resourceType": "MeasureReport",
      "id": "10de25b2-2b7a-4b93-833c-2762ed923b75",
      "meta": {
        "profile": [ "http://hl7.org/fhir/us/cqfmeasures/StructureDefinition/test-case-cqfm" ]
      },
      "contained": [ {
        "resourceType": "Parameters",
        "id": "b0ce0a0b-e6d5-45d8-86fc-5bb9f94460eb-parameters",
        "parameter": [ {
          "name": "subject",
          "valueString": "8646b35e-68e3-4932-ae69-0bd7fb4e7a27"
        } ]
      } ],
      "extension": [ {
        "url": "http://hl7.org/fhir/StructureDefinition/cqf-inputParameters",
        "valueReference": {
          "reference": "#b0ce0a0b-e6d5-45d8-86fc-5bb9f94460eb-parameters"
        }
      }, {
        "url": "http://hl7.org/fhir/us/cqfmeasures/StructureDefinition/cqfm-testCaseDescription",
        "valueMarkdown": "Pt. discharged on anticoagulant, starts before OccurA\n"
      } ],
      "modifierExtension": [ {
        "url": "http://hl7.org/fhir/us/cqfmeasures/StructureDefinition/cqfm-isTestCase",
        "valueBoolean": true
      } ],
      "status": "complete",
      "type": "individual",
      "measure": "https://madie.cms.gov/Measure/CMS71FHIRSTKAnticoagAFFlutter",
      "period": {
        "start": "2026-01-01",
        "end": "2026-12-31"
      },
      "group": [ {
        "id": "Group_1",
        "population": [ {
          "id": "InitialPopulation_1",
          "code": {
            "coding": [ {
              "system": "http://terminology.hl7.org/CodeSystem/measure-population",
              "code": "initial-population",
              "display": "Initial Population"
            } ]
          },
          "count": 1
        }, {
          "id": "Denominator_1",
          "code": {
            "coding": [ {
              "system": "http://terminology.hl7.org/CodeSystem/measure-population",
              "code": "denominator",
              "display": "Denominator"
            } ]
          },
          "count": 1
        }, {
          "id": "DenominatorExclusion_1",
          "code": {
            "coding": [ {
              "system": "http://terminology.hl7.org/CodeSystem/measure-population",
              "code": "denominator-exclusion",
              "display": "Denominator Exclusion"
            } ]
          },
          "count": 0
        }, {
          "id": "Numerator_1",
          "code": {
            "coding": [ {
              "system": "http://terminology.hl7.org/CodeSystem/measure-population",
              "code": "numerator",
              "display": "Numerator"
            } ]
          },
          "count": 0
        }, {
          "id": "DenominatorException_1",
          "code": {
            "coding": [ {
              "system": "http://terminology.hl7.org/CodeSystem/measure-population",
              "code": "denominator-exception",
              "display": "Denominator Exception"
            } ]
          },
          "count": 0
        } ],
        "measureScore": {
          "value": 0.0
        }
      } ],
      "evaluatedResource": [ {
        "reference": "Patient/8646b35e-68e3-4932-ae69-0bd7fb4e7a27"
      }, {
        "reference": "Encounter/af14d13e-2293-424c-916e-d105ecceb6fa"
      }, {
        "reference": "Claim/8442ba86-672e-493a-bcfb-a0a0cd6a3099"
      }, {
        "reference": "MedicationRequest/603e0f14-cfd3-47e7-b9cc-4740ece67279"
      }, {
        "reference": "Coverage/addb1e67-8b5e-440e-b51c-6a950f032d84"
      }, {
        "reference": "Procedure/738df3ce-a775-4b1e-bd9f-87c4d056950f"
      }, {
        "reference": "Condition/ece7976f-361d-4ee6-ae85-8f97b75dbd20"
      }, {
        "reference": "Organization/663f0a60-cb69-4808-99f5-015f0e9532bf"
      }, {
        "reference": "Practitioner/69683971-3c35-4c3d-9928-8d53bce6e525"
      } ]
    },
    "request": {
      "method": "PUT",
      "url": "MeasureReport/10de25b2-2b7a-4b93-833c-2762ed923b75"
    }
  } ]
}