{
  "resourceType": "Bundle",
  "id": "633c9d040968f8012250fca3",
  "type": "transaction",
  "entry": [ {
    "fullUrl": "https://madie.cms.gov/Patient/12f5363d-fa3f-4a61-aad9-defc8583ca12",
    "resource": {
      "resourceType": "Patient",
      "id": "12f5363d-fa3f-4a61-aad9-defc8583ca12",
      "meta": {
        "profile": [ "http://hl7.org/fhir/us/qicore/StructureDefinition/qicore-patient" ]
      },
      "text": {
        "status": "generated",
        "div": "<div xmlns=\"http://www.w3.org/1999/xhtml\"><div class=\"hapiHeaderText\">CMOdurED_ED=1hrNoObsBFEnc <b>DENEXPASS </b></div><table class=\"hapiPropertyTable\"><tbody><tr><td>Identifier</td><td>670854918483ca8b7894283bd5cddbcf5037c5392991b8777bf3c4f78ed05f0b</td></tr><tr><td>Date of birth</td><td><span>18 September 1985</span></td></tr></tbody></table></div>"
      },
      "extension": [ {
        "url": "http://hl7.org/fhir/us/core/StructureDefinition/us-core-race",
        "extension": [ {
          "url": "ombCategory",
          "valueCoding": {
            "system": "urn:oid:2.16.840.1.113883.6.238",
            "code": "1002-5",
            "display": "American Indian or Alaska Native",
            "userSelected": true
          }
        }, {
          "url": "text",
          "valueString": "American Indian or Alaska Native"
        } ]
      }, {
        "url": "http://hl7.org/fhir/us/core/StructureDefinition/us-core-ethnicity",
        "extension": [ {
          "url": "ombCategory",
          "valueCoding": {
            "system": "urn:oid:2.16.840.1.113883.6.238",
            "code": "2135-2",
            "display": "Hispanic or Latino",
            "userSelected": true
          }
        }, {
          "url": "text",
          "valueString": "Hispanic or Latino"
        } ]
      } ],
      "identifier": [ {
        "type": {
          "coding": [ {
            "system": "http://terminology.hl7.org/CodeSystem/v2-0203",
            "code": "MR"
          } ]
        },
        "system": "https://bonnie-fhir.healthit.gov/",
        "value": "633c9d040968f8012250fca3"
      } ],
      "active": true,
      "name": [ {
        "use": "usual",
        "family": "DENEXPass",
        "given": [ "CMOdurEDED1hrNoObsBFEnc" ]
      } ],
      "gender": "female",
      "birthDate": "1986-09-18"
    },
    "request": {
      "method": "PUT",
      "url": "Patient/12f5363d-fa3f-4a61-aad9-defc8583ca12"
    }
  }, {
    "fullUrl": "https://madie.cms.gov/Condition/94febb32-7531-409b-8596-027b6f727bef",
    "resource": {
      "resourceType": "Condition",
      "id": "94febb32-7531-409b-8596-027b6f727bef",
      "meta": {
        "profile": [ "http://hl7.org/fhir/us/qicore/StructureDefinition/qicore-condition-encounter-diagnosis" ]
      },
      "clinicalStatus": {
        "coding": [ {
          "system": "http://terminology.hl7.org/CodeSystem/condition-clinical",
          "code": "inactive"
        } ]
      },
      "verificationStatus": {
        "coding": [ {
          "system": "http://terminology.hl7.org/CodeSystem/condition-ver-status",
          "code": "confirmed"
        } ]
      },
      "category": [ {
        "coding": [ {
          "system": "http://terminology.hl7.org/CodeSystem/condition-category",
          "code": "encounter-diagnosis",
          "display": "Encounter Diagnosis"
        } ]
      } ],
      "code": {
        "coding": [ {
          "system": "http://hl7.org/fhir/sid/icd-10-cm",
          "code": "I48.20"
        }, {
          "system": "http://hl7.org/fhir/sid/icd-10-cm",
          "code": "I48.0"
        }, {
          "system": "http://snomed.info/sct",
          "code": "5370000"
        } ]
      },
      "subject": {
        "reference": "Patient/12f5363d-fa3f-4a61-aad9-defc8583ca12"
      },
      "onsetDateTime": "2026-10-01T09:01:00.000Z",
      "abatementDateTime": "2026-10-12T00:15:00.000Z"
    },
    "request": {
      "method": "PUT",
      "url": "Condition/94febb32-7531-409b-8596-027b6f727bef"
    }
  }, {
    "fullUrl": "https://madie.cms.gov/Encounter/fa2750d6-9e05-489b-8a73-3f152fee6b69",
    "resource": {
      "resourceType": "Encounter",
      "id": "fa2750d6-9e05-489b-8a73-3f152fee6b69",
      "meta": {
        "profile": [ "http://hl7.org/fhir/us/qicore/StructureDefinition/qicore-encounter" ]
      },
      "status": "finished",
      "class": {
        "system": "http://terminology.hl7.org/CodeSystem/v3-ActCode",
        "code": "EMER",
        "display": "emergency"
      },
      "type": [ {
        "coding": [ {
          "system": "http://snomed.info/sct",
          "code": "4525004"
        } ]
      } ],
      "subject": {
        "reference": "Patient/12f5363d-fa3f-4a61-aad9-defc8583ca12"
      },
      "period": {
        "start": "2026-10-01T09:01:00.000Z",
        "end": "2026-10-01T12:15:00.000Z"
      },
      "length": {
        "value": 0,
        "unit": "days"
      }
    },
    "request": {
      "method": "PUT",
      "url": "Encounter/fa2750d6-9e05-489b-8a73-3f152fee6b69"
    }
  }, {
    "fullUrl": "https://madie.cms.gov/Encounter/cd9782b5-249f-422d-8999-e794a464660e",
    "resource": {
      "resourceType": "Encounter",
      "id": "cd9782b5-249f-422d-8999-e794a464660e",
      "meta": {
        "profile": [ "http://hl7.org/fhir/us/qicore/StructureDefinition/qicore-encounter" ]
      },
      "status": "finished",
      "class": {
        "system": "http://terminology.hl7.org/CodeSystem/v3-ActCode",
        "code": "IMP",
        "display": "inpatient encounter"
      },
      "type": [ {
        "coding": [ {
          "system": "http://snomed.info/sct",
          "code": "32485007"
        } ]
      } ],
      "subject": {
        "reference": "Patient/12f5363d-fa3f-4a61-aad9-defc8583ca12"
      },
      "period": {
        "start": "2026-10-01T13:15:00.000Z",
        "end": "2026-10-12T00:15:00.000Z"
      },
      "length": {
        "value": 11,
        "unit": "days"
      },
      "reasonReference": [ {
        "reference": "Condition/94febb32-7531-409b-8596-027b6f727bef"
      } ]
    },
    "request": {
      "method": "PUT",
      "url": "Encounter/cd9782b5-249f-422d-8999-e794a464660e"
    }
  }, {
    "fullUrl": "https://madie.cms.gov/Claim/0692371d-7dbc-4a23-af95-735b97a80032",
    "resource": {
      "resourceType": "Claim",
      "id": "0692371d-7dbc-4a23-af95-735b97a80032",
      "meta": {
        "profile": [ "http://hl7.org/fhir/us/qicore/StructureDefinition/qicore-claim" ]
      },
      "status": "active",
      "type": {
        "coding": [ {
          "system": "http://terminology.hl7.org/CodeSystem/claim-type",
          "code": "institutional"
        } ]
      },
      "use": "claim",
      "patient": {
        "reference": "Patient/12f5363d-fa3f-4a61-aad9-defc8583ca12"
      },
      "created": "2026-12-01",
      "provider": {
        "reference": "Practitioner/2c388cf0-31c9-4d5e-989d-36f85fe07327"
      },
      "priority": {
        "coding": [ {
          "system": "http://terminology.hl7.org/CodeSystem/processpriority",
          "code": "normal"
        } ]
      },
      "diagnosis": [ {
        "sequence": 1,
        "diagnosisCodeableConcept": {
          "coding": [ {
            "system": "http://hl7.org/fhir/sid/icd-10-cm",
            "code": "I63.00"
          } ]
        },
        "type": [ {
          "coding": [ {
            "system": "http://terminology.hl7.org/CodeSystem/ex-diagnosistype",
            "code": "principal"
          } ]
        } ]
      } ],
      "insurance": [ {
        "sequence": 1,
        "focal": true,
        "coverage": {
          "reference": "Coverage/5fa041661c76ba66d9959367"
        }
      } ],
      "item": [ {
        "sequence": 1,
        "diagnosisSequence": [ 1 ],
        "productOrService": {
          "coding": [ {
            "system": "http://terminology.hl7.org/CodeSystem/ex-USCLS",
            "code": "99555"
          } ]
        },
        "encounter": [ {
          "reference": "Encounter/cd9782b5-249f-422d-8999-e794a464660e"
        } ]
      } ]
    },
    "request": {
      "method": "PUT",
      "url": "Claim/0692371d-7dbc-4a23-af95-735b97a80032"
    }
  }, {
    "fullUrl": "https://madie.cms.gov/ServiceRequest/4af66648-f9c3-40a1-8923-e817c101902c",
    "resource": {
      "resourceType": "ServiceRequest",
      "id": "4af66648-f9c3-40a1-8923-e817c101902c",
      "meta": {
        "profile": [ "http://hl7.org/fhir/us/qicore/StructureDefinition/qicore-servicerequest" ]
      },
      "status": "active",
      "intent": "order",
      "code": {
        "coding": [ {
          "system": "http://snomed.info/sct",
          "code": "133918004"
        } ]
      },
      "subject": {
        "reference": "Patient/12f5363d-fa3f-4a61-aad9-defc8583ca12"
      },
      "authoredOn": "2026-10-01T09:15:00.000Z"
    },
    "request": {
      "method": "PUT",
      "url": "ServiceRequest/4af66648-f9c3-40a1-8923-e817c101902c"
    }
  }, {
    "fullUrl": "https://madie.cms.gov/Coverage/e17a0109-b102-49bf-af8e-e093e614658b",
    "resource": {
      "resourceType": "Coverage",
      "id": "e17a0109-b102-49bf-af8e-e093e614658b",
      "status": "active",
      "subscriberId": "523435",
      "beneficiary": {
        "reference": "Patient/12f5363d-fa3f-4a61-aad9-defc8583ca12"
      },
      "relationship": {
        "coding": [ {
          "system": "http://terminology.hl7.org/CodeSystem/subscriber-relationship",
          "code": "self"
        } ]
      },
      "period": {
        "start": "1986-09-18T08:00:00.000Z"
      },
      "payor": [ {
        "reference": "Organization/f65ac306-9157-4917-b7e9-5c634cfb69d6"
      } ]
    },
    "request": {
      "method": "PUT",
      "url": "Coverage/e17a0109-b102-49bf-af8e-e093e614658b"
    }
  }, {
    "fullUrl": "https://madie.cms.gov/Condition/726210b8-3817-44a3-99a9-c9318a261efa",
    "resource": {
      "resourceType": "Condition",
      "id": "726210b8-3817-44a3-99a9-c9318a261efa",
      "meta": {
        "profile": [ "http://hl7.org/fhir/us/qicore/StructureDefinition/qicore-condition-encounter-diagnosis" ]
      },
      "clinicalStatus": {
        "coding": [ {
          "system": "http://terminology.hl7.org/CodeSystem/condition-clinical",
          "code": "active"
        } ]
      },
      "verificationStatus": {
        "coding": [ {
          "system": "http://terminology.hl7.org/CodeSystem/condition-ver-status",
          "code": "confirmed"
        } ]
      },
      "category": [ {
        "coding": [ {
          "system": "http://terminology.hl7.org/CodeSystem/condition-category",
          "code": "encounter-diagnosis",
          "display": "Encounter Diagnosis"
        } ]
      } ],
      "code": {
        "coding": [ {
          "system": "http://snomed.info/sct",
          "version": "2021-09",
          "code": "111297002",
          "display": "Nonparalytic stroke (disorder)",
          "userSelected": true
        } ]
      },
      "subject": {
        "reference": "Patient/12f5363d-fa3f-4a61-aad9-defc8583ca12"
      },
      "recordedDate": "2026-10-13T08:00:00.000Z"
    },
    "request": {
      "method": "PUT",
      "url": "Condition/726210b8-3817-44a3-99a9-c9318a261efa"
    }
  }, {
    "fullUrl": "https://madie.cms.gov/Organization/f65ac306-9157-4917-b7e9-5c634cfb69d6",
    "resource": {
      "resourceType": "Organization",
      "id": "f65ac306-9157-4917-b7e9-5c634cfb69d6",
      "meta": {
        "profile": [ "http://hl7.org/fhir/us/qicore/StructureDefinition/qicore-organization" ]
      },
      "identifier": [ {
        "use": "temp",
        "system": "urn:oid:2.16.840.1.113883.4.4",
        "value": "21-3259825"
      } ],
      "active": true,
      "type": [ {
        "coding": [ {
          "system": "http://terminology.hl7.org/CodeSystem/organization-type",
          "code": "pay",
          "display": "Payer"
        } ]
      } ],
      "name": "Blue Cross Blue Shield of Texas",
      "telecom": [ {
        "system": "phone",
        "value": "(+1) 972-766-6900"
      } ],
      "address": [ {
        "use": "billing",
        "type": "postal",
        "line": [ "P.O. Box 660044" ],
        "city": "Dallas",
        "state": "TX",
        "postalCode": "75266-0044",
        "country": "USA"
      } ]
    },
    "request": {
      "method": "PUT",
      "url": "Organization/f65ac306-9157-4917-b7e9-5c634cfb69d6"
    }
  }, {
    "fullUrl": "https://madie.cms.gov/Practitioner/2c388cf0-31c9-4d5e-989d-36f85fe07327",
    "resource": {
      "resourceType": "Practitioner",
      "id": "2c388cf0-31c9-4d5e-989d-36f85fe07327",
      "meta": {
        "profile": [ "http://hl7.org/fhir/us/qicore/StructureDefinition/qicore-practitioner" ]
      },
      "identifier": [ {
        "system": "http://hl7.org/fhir/sid/us-npi",
        "value": "9999999896"
      } ],
      "name": [ {
        "family": "Evil",
        "prefix": [ "Dr" ]
      } ]
    },
    "request": {
      "method": "PUT",
      "url": "Practitioner/2c388cf0-31c9-4d5e-989d-36f85fe07327"
    }
  }, {
    "fullUrl": "https://madie.cms.gov/MeasureReport/c0e10350-10e3-45c9-ab74-27fdc15a7771",
    "resource": {
      "resourceType": "MeasureReport",
      "id": "c0e10350-10e3-45c9-ab74-27fdc15a7771",
      "meta": {
        "profile": [ "http://hl7.org/fhir/us/cqfmeasures/StructureDefinition/test-case-cqfm" ]
      },
      "contained": [ {
        "resourceType": "Parameters",
        "id": "f2e1b6fe-50da-4c84-84f6-3b6e3eca64ca-parameters",
        "parameter": [ {
          "name": "subject",
          "valueString": "12f5363d-fa3f-4a61-aad9-defc8583ca12"
        } ]
      } ],
      "extension": [ {
        "url": "http://hl7.org/fhir/StructureDefinition/cqf-inputParameters",
        "valueReference": {
          "reference": "#f2e1b6fe-50da-4c84-84f6-3b6e3eca64ca-parameters"
        }
      }, {
        "url": "http://hl7.org/fhir/us/cqfmeasures/StructureDefinition/cqfm-testCaseDescription",
        "valueMarkdown": "\"Patient receives CMO during ED. ED ends 60 min before Inpatient start. No Observation. Testing day HospitalizationWithObservation function\n\"\n"
      } ],
      "modifierExtension": [ {
        "url": "http://hl7.org/fhir/us/cqfmeasures/StructureDefinition/cqfm-isTestCase",
        "valueBoolean": true
      } ],
      "status": "complete",
      "type": "individual",
      "measure": "https://madie.cms.gov/Measure/CMS71FHIRSTKAnticoagAFFlutter",
      "period": {
        "start": "2026-01-01",
        "end": "2026-12-31"
      },
      "group": [ {
        "id": "Group_1",
        "population": [ {
          "id": "InitialPopulation_1",
          "code": {
            "coding": [ {
              "system": "http://terminology.hl7.org/CodeSystem/measure-population",
              "code": "initial-population",
              "display": "Initial Population"
            } ]
          },
          "count": 1
        }, {
          "id": "Denominator_1",
          "code": {
            "coding": [ {
              "system": "http://terminology.hl7.org/CodeSystem/measure-population",
              "code": "denominator",
              "display": "Denominator"
            } ]
          },
          "count": 1
        }, {
          "id": "DenominatorExclusion_1",
          "code": {
            "coding": [ {
              "system": "http://terminology.hl7.org/CodeSystem/measure-population",
              "code": "denominator-exclusion",
              "display": "Denominator Exclusion"
            } ]
          },
          "count": 1
        }, {
          "id": "Numerator_1",
          "code": {
            "coding": [ {
              "system": "http://terminology.hl7.org/CodeSystem/measure-population",
              "code": "numerator",
              "display": "Numerator"
            } ]
          },
          "count": 0
        }, {
          "id": "DenominatorException_1",
          "code": {
            "coding": [ {
              "system": "http://terminology.hl7.org/CodeSystem/measure-population",
              "code": "denominator-exception",
              "display": "Denominator Exception"
            } ]
          },
          "count": 0
        } ],
        "measureScore": {
          "value": 0.0
        }
      } ],
      "evaluatedResource": [ {
        "reference": "Patient/12f5363d-fa3f-4a61-aad9-defc8583ca12"
      }, {
        "reference": "Condition/94febb32-7531-409b-8596-027b6f727bef"
      }, {
        "reference": "Encounter/fa2750d6-9e05-489b-8a73-3f152fee6b69"
      }, {
        "reference": "Encounter/cd9782b5-249f-422d-8999-e794a464660e"
      }, {
        "reference": "Claim/0692371d-7dbc-4a23-af95-735b97a80032"
      }, {
        "reference": "ServiceRequest/4af66648-f9c3-40a1-8923-e817c101902c"
      }, {
        "reference": "Coverage/e17a0109-b102-49bf-af8e-e093e614658b"
      }, {
        "reference": "Condition/726210b8-3817-44a3-99a9-c9318a261efa"
      }, {
        "reference": "Organization/f65ac306-9157-4917-b7e9-5c634cfb69d6"
      }, {
        "reference": "Practitioner/2c388cf0-31c9-4d5e-989d-36f85fe07327"
      } ]
    },
    "request": {
      "method": "PUT",
      "url": "MeasureReport/c0e10350-10e3-45c9-ab74-27fdc15a7771"
    }
  } ]
}