{
  "resourceType": "Bundle",
  "id": "633c9d030968f8012250fc8e",
  "type": "transaction",
  "entry": [ {
    "fullUrl": "https://madie.cms.gov/Patient/fb49e13d-3b13-46ae-8862-59033137e1b8",
    "resource": {
      "resourceType": "Patient",
      "id": "fb49e13d-3b13-46ae-8862-59033137e1b8",
      "meta": {
        "profile": [ "http://hl7.org/fhir/us/qicore/StructureDefinition/qicore-patient" ]
      },
      "text": {
        "status": "generated",
        "div": "<div xmlns=\"http://www.w3.org/1999/xhtml\"><div class=\"hapiHeaderText\">MedRsnStartTmLTEncAdmTm <b>DENEXCEPFAIL </b></div><table class=\"hapiPropertyTable\"><tbody><tr><td>Identifier</td><td>8a884ee78cd24d8c9b5a7d8bd151cd79</td></tr><tr><td>Date of birth</td><td><span>23 May 1954</span></td></tr></tbody></table></div>"
      },
      "extension": [ {
        "url": "http://hl7.org/fhir/us/core/StructureDefinition/us-core-race",
        "extension": [ {
          "url": "ombCategory",
          "valueCoding": {
            "system": "urn:oid:2.16.840.1.113883.6.238",
            "code": "1002-5",
            "display": "American Indian or Alaska Native",
            "userSelected": true
          }
        }, {
          "url": "text",
          "valueString": "American Indian or Alaska Native"
        } ]
      }, {
        "url": "http://hl7.org/fhir/us/core/StructureDefinition/us-core-ethnicity",
        "extension": [ {
          "url": "ombCategory",
          "valueCoding": {
            "system": "urn:oid:2.16.840.1.113883.6.238",
            "code": "2135-2",
            "display": "Hispanic or Latino",
            "userSelected": true
          }
        }, {
          "url": "text",
          "valueString": "Hispanic or Latino"
        } ]
      } ],
      "identifier": [ {
        "type": {
          "coding": [ {
            "system": "http://terminology.hl7.org/CodeSystem/v2-0203",
            "code": "MR"
          } ]
        },
        "system": "https://bonnie-fhir.healthit.gov/",
        "value": "633c9d030968f8012250fc8e"
      } ],
      "active": true,
      "name": [ {
        "use": "usual",
        "family": "DENEXCEPFail",
        "given": [ "MedRsnStartTmLTEncAdmTm" ]
      } ],
      "gender": "female",
      "birthDate": "1955-05-23"
    },
    "request": {
      "method": "PUT",
      "url": "Patient/fb49e13d-3b13-46ae-8862-59033137e1b8"
    }
  }, {
    "fullUrl": "https://madie.cms.gov/Encounter/83dcc8b5-66c2-4be3-943f-8a6f4898b164",
    "resource": {
      "resourceType": "Encounter",
      "id": "83dcc8b5-66c2-4be3-943f-8a6f4898b164",
      "meta": {
        "profile": [ "http://hl7.org/fhir/us/qicore/StructureDefinition/qicore-encounter" ]
      },
      "status": "finished",
      "class": {
        "system": "http://terminology.hl7.org/CodeSystem/v3-ActCode",
        "code": "IMP",
        "display": "inpatient encounter"
      },
      "type": [ {
        "coding": [ {
          "system": "http://snomed.info/sct",
          "code": "32485007"
        } ]
      } ],
      "subject": {
        "reference": "Patient/fb49e13d-3b13-46ae-8862-59033137e1b8"
      },
      "period": {
        "start": "2026-11-20T07:16:00.000Z",
        "end": "2026-11-22T08:15:00.000Z"
      },
      "length": {
        "value": 2,
        "unit": "days"
      },
      "reasonReference": [ {
        "reference": "Condition/63a5fb28-dac9-47b6-bd76-70abff697688"
      } ]
    },
    "request": {
      "method": "PUT",
      "url": "Encounter/83dcc8b5-66c2-4be3-943f-8a6f4898b164"
    }
  }, {
    "fullUrl": "https://madie.cms.gov/MedicationRequest/98c8b836-9b59-4384-84fc-3c04405edd4d",
    "resource": {
      "resourceType": "MedicationRequest",
      "id": "98c8b836-9b59-4384-84fc-3c04405edd4d",
      "meta": {
        "profile": [ "http://hl7.org/fhir/us/qicore/StructureDefinition/qicore-medicationnotrequested" ]
      },
      "status": "completed",
      "intent": "order",
      "category": [ {
        "coding": [ {
          "system": "http://terminology.hl7.org/CodeSystem/medicationrequest-category",
          "code": "community"
        } ]
      } ],
      "doNotPerform": true,
      "medicationCodeableConcept": {
        "coding": [ {
          "system": "http://www.nlm.nih.gov/research/umls/rxnorm",
          "code": "1037045"
        } ]
      },
      "subject": {
        "reference": "Patient/fb49e13d-3b13-46ae-8862-59033137e1b8"
      },
      "authoredOn": "2026-11-20T07:15:00.000Z",
      "requester": {
        "reference": "Practitioner/example"
      },
      "reasonCode": [ {
        "coding": [ {
          "system": "http://snomed.info/sct",
          "code": "183932001"
        } ]
      } ]
    },
    "request": {
      "method": "PUT",
      "url": "MedicationRequest/98c8b836-9b59-4384-84fc-3c04405edd4d"
    }
  }, {
    "fullUrl": "https://madie.cms.gov/Task/601bfbb9-5b84-4902-855f-66c5f6d7d608",
    "resource": {
      "resourceType": "Task",
      "id": "601bfbb9-5b84-4902-855f-66c5f6d7d608",
      "meta": {
        "profile": [ "http://hl7.org/fhir/us/qicore/StructureDefinition/qicore-taskrejected" ]
      },
      "status": "rejected",
      "statusReason": {
        "coding": [ {
          "system": "http://snomed.info/sct",
          "code": "183932001",
          "userSelected": true
        } ]
      },
      "intent": "order",
      "code": {
        "coding": [ {
          "system": "http://hl7.org/fhir/CodeSystem/task-code",
          "code": "fulfill"
        } ]
      },
      "focus": {
        "reference": "MedicationRequest/98c8b836-9b59-4384-84fc-3c04405edd4d"
      },
      "executionPeriod": {
        "start": "2026-11-20T07:15:00.000Z",
        "end": "2026-11-22T08:15:00.000Z"
      }
    },
    "request": {
      "method": "PUT",
      "url": "Task/601bfbb9-5b84-4902-855f-66c5f6d7d608"
    }
  }, {
    "fullUrl": "https://madie.cms.gov/Claim/db678c36-b9f5-4bc7-9374-531c05a9fe3a",
    "resource": {
      "resourceType": "Claim",
      "id": "db678c36-b9f5-4bc7-9374-531c05a9fe3a",
      "meta": {
        "profile": [ "http://hl7.org/fhir/us/qicore/StructureDefinition/qicore-claim" ]
      },
      "status": "active",
      "type": {
        "coding": [ {
          "system": "http://terminology.hl7.org/CodeSystem/claim-type",
          "code": "institutional"
        } ]
      },
      "use": "claim",
      "patient": {
        "reference": "Patient/fb49e13d-3b13-46ae-8862-59033137e1b8"
      },
      "created": "2026-12-01",
      "provider": {
        "reference": "Practitioner/practitioner-123456"
      },
      "priority": {
        "coding": [ {
          "system": "http://terminology.hl7.org/CodeSystem/processpriority",
          "code": "normal"
        } ]
      },
      "diagnosis": [ {
        "sequence": 1,
        "diagnosisCodeableConcept": {
          "coding": [ {
            "system": "http://hl7.org/fhir/sid/icd-10-cm",
            "code": "I63.00"
          } ]
        },
        "type": [ {
          "coding": [ {
            "system": "http://terminology.hl7.org/CodeSystem/ex-diagnosistype",
            "code": "principal"
          } ]
        } ]
      } ],
      "insurance": [ {
        "sequence": 1,
        "focal": true,
        "coverage": {
          "reference": "Coverage/5fa041661c76ba66d9959367"
        }
      } ],
      "item": [ {
        "sequence": 1,
        "diagnosisSequence": [ 1 ],
        "productOrService": {
          "coding": [ {
            "system": "http://terminology.hl7.org/CodeSystem/ex-USCLS",
            "code": "99555"
          } ]
        },
        "encounter": [ {
          "reference": "Encounter/83dcc8b5-66c2-4be3-943f-8a6f4898b164"
        } ]
      } ]
    },
    "request": {
      "method": "PUT",
      "url": "Claim/db678c36-b9f5-4bc7-9374-531c05a9fe3a"
    }
  }, {
    "fullUrl": "https://madie.cms.gov/Coverage/eab51514-3f37-4709-ab7e-33df7701c056",
    "resource": {
      "resourceType": "Coverage",
      "id": "eab51514-3f37-4709-ab7e-33df7701c056",
      "meta": {
        "profile": [ "http://hl7.org/fhir/us/qicore/StructureDefinition/qicore-coverage" ]
      },
      "status": "active",
      "subscriberId": "523435",
      "beneficiary": {
        "reference": "Patient/fb49e13d-3b13-46ae-8862-59033137e1b8"
      },
      "relationship": {
        "coding": [ {
          "system": "http://terminology.hl7.org/CodeSystem/subscriber-relationship",
          "code": "self"
        } ]
      },
      "payor": [ {
        "reference": "Organization/7480723d-cd7a-42de-b232-283fb6fb56d0"
      } ]
    },
    "request": {
      "method": "PUT",
      "url": "Coverage/eab51514-3f37-4709-ab7e-33df7701c056"
    }
  }, {
    "fullUrl": "https://madie.cms.gov/Procedure/7a43a3af-77d8-4f93-ba25-2e9a729108c6",
    "resource": {
      "resourceType": "Procedure",
      "id": "7a43a3af-77d8-4f93-ba25-2e9a729108c6",
      "meta": {
        "profile": [ "http://hl7.org/fhir/us/qicore/StructureDefinition/qicore-procedure" ]
      },
      "extension": [ {
        "url": "http://hl7.org/fhir/us/qicore/StructureDefinition/qicore-recorded",
        "valueDateTime": "2014-04-05T13:35:00.000Z"
      } ],
      "status": "completed",
      "code": {
        "coding": [ {
          "system": "http://www.cms.gov/Medicare/Coding/ICD10",
          "code": "02560ZZ"
        }, {
          "system": "http://snomed.info/sct",
          "code": "175095005"
        } ]
      },
      "subject": {
        "reference": "Patient/fb49e13d-3b13-46ae-8862-59033137e1b8"
      },
      "performedPeriod": {
        "start": "2026-11-20T07:15:00.000Z",
        "end": "2026-11-20T07:16:00.000Z"
      }
    },
    "request": {
      "method": "PUT",
      "url": "Procedure/7a43a3af-77d8-4f93-ba25-2e9a729108c6"
    }
  }, {
    "fullUrl": "https://madie.cms.gov/Condition/63a5fb28-dac9-47b6-bd76-70abff697688",
    "resource": {
      "resourceType": "Condition",
      "id": "63a5fb28-dac9-47b6-bd76-70abff697688",
      "meta": {
        "profile": [ "http://hl7.org/fhir/us/qicore/StructureDefinition/qicore-condition-encounter-diagnosis" ]
      },
      "clinicalStatus": {
        "coding": [ {
          "system": "http://terminology.hl7.org/CodeSystem/condition-clinical",
          "code": "active"
        } ]
      },
      "verificationStatus": {
        "coding": [ {
          "system": "http://terminology.hl7.org/CodeSystem/condition-ver-status",
          "code": "confirmed"
        } ]
      },
      "category": [ {
        "coding": [ {
          "system": "http://terminology.hl7.org/CodeSystem/condition-category",
          "code": "encounter-diagnosis",
          "display": "Encounter Diagnosis"
        } ]
      } ],
      "code": {
        "coding": [ {
          "system": "http://snomed.info/sct",
          "version": "2021-09",
          "code": "111297002",
          "display": "Nonparalytic stroke (disorder)",
          "userSelected": true
        } ]
      },
      "subject": {
        "reference": "Patient/fb49e13d-3b13-46ae-8862-59033137e1b8"
      },
      "recordedDate": "2026-10-13T08:00:00.000Z"
    },
    "request": {
      "method": "PUT",
      "url": "Condition/63a5fb28-dac9-47b6-bd76-70abff697688"
    }
  }, {
    "fullUrl": "https://madie.cms.gov/Organization/7480723d-cd7a-42de-b232-283fb6fb56d0",
    "resource": {
      "resourceType": "Organization",
      "id": "7480723d-cd7a-42de-b232-283fb6fb56d0",
      "meta": {
        "profile": [ "http://hl7.org/fhir/us/qicore/StructureDefinition/qicore-organization" ]
      },
      "identifier": [ {
        "use": "temp",
        "system": "urn:oid:2.16.840.1.113883.4.4",
        "value": "21-3259825"
      } ],
      "active": true,
      "type": [ {
        "coding": [ {
          "system": "http://terminology.hl7.org/CodeSystem/organization-type",
          "code": "pay",
          "display": "Payer"
        } ]
      } ],
      "name": "Blue Cross Blue Shield of Texas",
      "telecom": [ {
        "system": "phone",
        "value": "(+1) 972-766-6900"
      } ],
      "address": [ {
        "use": "billing",
        "type": "postal",
        "line": [ "P.O. Box 660044" ],
        "city": "Dallas",
        "state": "TX",
        "postalCode": "75266-0044",
        "country": "USA"
      } ]
    },
    "request": {
      "method": "PUT",
      "url": "Organization/7480723d-cd7a-42de-b232-283fb6fb56d0"
    }
  }, {
    "fullUrl": "https://madie.cms.gov/MeasureReport/bc056112-715e-432b-99f3-18a2e067a125",
    "resource": {
      "resourceType": "MeasureReport",
      "id": "bc056112-715e-432b-99f3-18a2e067a125",
      "meta": {
        "profile": [ "http://hl7.org/fhir/us/cqfmeasures/StructureDefinition/test-case-cqfm" ]
      },
      "contained": [ {
        "resourceType": "Parameters",
        "id": "98b75b78-2a38-4494-9438-8268eb6d595f-parameters",
        "parameter": [ {
          "name": "subject",
          "valueString": "fb49e13d-3b13-46ae-8862-59033137e1b8"
        } ]
      } ],
      "extension": [ {
        "url": "http://hl7.org/fhir/StructureDefinition/cqf-inputParameters",
        "valueReference": {
          "reference": "#98b75b78-2a38-4494-9438-8268eb6d595f-parameters"
        }
      }, {
        "url": "http://hl7.org/fhir/us/cqfmeasures/StructureDefinition/cqfm-testCaseDescription",
        "valueMarkdown": "Patient did not receive anticoagulant on dc due to medical reason, but start date is before start of OccurA\n"
      } ],
      "modifierExtension": [ {
        "url": "http://hl7.org/fhir/us/cqfmeasures/StructureDefinition/cqfm-isTestCase",
        "valueBoolean": true
      } ],
      "status": "complete",
      "type": "individual",
      "measure": "https://madie.cms.gov/Measure/CMS71FHIRSTKAnticoagAFFlutter",
      "period": {
        "start": "2026-01-01",
        "end": "2026-12-31"
      },
      "group": [ {
        "id": "Group_1",
        "population": [ {
          "id": "InitialPopulation_1",
          "code": {
            "coding": [ {
              "system": "http://terminology.hl7.org/CodeSystem/measure-population",
              "code": "initial-population",
              "display": "Initial Population"
            } ]
          },
          "count": 1
        }, {
          "id": "Denominator_1",
          "code": {
            "coding": [ {
              "system": "http://terminology.hl7.org/CodeSystem/measure-population",
              "code": "denominator",
              "display": "Denominator"
            } ]
          },
          "count": 1
        }, {
          "id": "DenominatorExclusion_1",
          "code": {
            "coding": [ {
              "system": "http://terminology.hl7.org/CodeSystem/measure-population",
              "code": "denominator-exclusion",
              "display": "Denominator Exclusion"
            } ]
          },
          "count": 0
        }, {
          "id": "Numerator_1",
          "code": {
            "coding": [ {
              "system": "http://terminology.hl7.org/CodeSystem/measure-population",
              "code": "numerator",
              "display": "Numerator"
            } ]
          },
          "count": 0
        }, {
          "id": "DenominatorException_1",
          "code": {
            "coding": [ {
              "system": "http://terminology.hl7.org/CodeSystem/measure-population",
              "code": "denominator-exception",
              "display": "Denominator Exception"
            } ]
          },
          "count": 0
        } ],
        "measureScore": {
          "value": 0.0
        }
      } ],
      "evaluatedResource": [ {
        "reference": "Patient/fb49e13d-3b13-46ae-8862-59033137e1b8"
      }, {
        "reference": "Encounter/83dcc8b5-66c2-4be3-943f-8a6f4898b164"
      }, {
        "reference": "MedicationRequest/98c8b836-9b59-4384-84fc-3c04405edd4d"
      }, {
        "reference": "Task/601bfbb9-5b84-4902-855f-66c5f6d7d608"
      }, {
        "reference": "Claim/db678c36-b9f5-4bc7-9374-531c05a9fe3a"
      }, {
        "reference": "Coverage/eab51514-3f37-4709-ab7e-33df7701c056"
      }, {
        "reference": "Procedure/7a43a3af-77d8-4f93-ba25-2e9a729108c6"
      }, {
        "reference": "Condition/63a5fb28-dac9-47b6-bd76-70abff697688"
      }, {
        "reference": "Organization/7480723d-cd7a-42de-b232-283fb6fb56d0"
      } ]
    },
    "request": {
      "method": "PUT",
      "url": "MeasureReport/bc056112-715e-432b-99f3-18a2e067a125"
    }
  } ]
}