{
  "resourceType": "Bundle",
  "id": "633c9d030968f8012250fc93",
  "type": "transaction",
  "entry": [ {
    "fullUrl": "https://madie.cms.gov/Patient/56ae006d-ab1b-428d-8614-2ccd5d962650",
    "resource": {
      "resourceType": "Patient",
      "id": "56ae006d-ab1b-428d-8614-2ccd5d962650",
      "meta": {
        "profile": [ "http://hl7.org/fhir/us/qicore/StructureDefinition/qicore-patient" ]
      },
      "text": {
        "status": "generated",
        "div": "<div xmlns=\"http://www.w3.org/1999/xhtml\"><div class=\"hapiHeaderText\">MedDCAnticoaStartTmEQEncAdmTm <b>NUMERPASS </b></div><table class=\"hapiPropertyTable\"><tbody><tr><td>Identifier</td><td>31fcea6cd6f0c1c8b9c40622729fede7</td></tr><tr><td>Date of birth</td><td><span>23 May 1954</span></td></tr></tbody></table></div>"
      },
      "extension": [ {
        "url": "http://hl7.org/fhir/us/core/StructureDefinition/us-core-race",
        "extension": [ {
          "url": "ombCategory",
          "valueCoding": {
            "system": "urn:oid:2.16.840.1.113883.6.238",
            "code": "1002-5",
            "display": "American Indian or Alaska Native",
            "userSelected": true
          }
        }, {
          "url": "text",
          "valueString": "American Indian or Alaska Native"
        } ]
      }, {
        "url": "http://hl7.org/fhir/us/core/StructureDefinition/us-core-ethnicity",
        "extension": [ {
          "url": "ombCategory",
          "valueCoding": {
            "system": "urn:oid:2.16.840.1.113883.6.238",
            "code": "2135-2",
            "display": "Hispanic or Latino",
            "userSelected": true
          }
        }, {
          "url": "text",
          "valueString": "Hispanic or Latino"
        } ]
      }, {
        "url": "http://hl7.org/fhir/us/core/StructureDefinition/us-core-sex",
        "valueCode": "248153007"
      } ],
      "identifier": [ {
        "type": {
          "coding": [ {
            "system": "http://terminology.hl7.org/CodeSystem/v2-0203",
            "code": "MR"
          } ]
        },
        "system": "https://bonnie-fhir.healthit.gov/",
        "value": "633c9d030968f8012250fc93"
      } ],
      "active": true,
      "name": [ {
        "use": "usual",
        "family": "NUMERPass",
        "given": [ "DCANTIcoagHXofABlat" ]
      } ],
      "gender": "female",
      "birthDate": "1955-05-23"
    },
    "request": {
      "method": "PUT",
      "url": "Patient/56ae006d-ab1b-428d-8614-2ccd5d962650"
    }
  }, {
    "fullUrl": "https://madie.cms.gov/Condition/1de12c25-2b3b-45c9-acf7-f13f2d5cfe8e",
    "resource": {
      "resourceType": "Condition",
      "id": "1de12c25-2b3b-45c9-acf7-f13f2d5cfe8e",
      "meta": {
        "profile": [ "http://hl7.org/fhir/us/qicore/StructureDefinition/qicore-condition-problems-health-concerns" ]
      },
      "verificationStatus": {
        "coding": [ {
          "system": "http://terminology.hl7.org/CodeSystem/condition-ver-status",
          "code": "confirmed"
        } ]
      },
      "category": [ {
        "coding": [ {
          "system": "http://terminology.hl7.org/CodeSystem/condition-category",
          "code": "problem-list-item"
        } ]
      } ],
      "code": {
        "coding": [ {
          "system": "http://snomed.info/sct",
          "code": "429508000"
        } ]
      },
      "subject": {
        "reference": "Patient/56ae006d-ab1b-428d-8614-2ccd5d962650"
      },
      "onsetDateTime": "2026-11-18T06:00:00.000Z"
    },
    "request": {
      "method": "PUT",
      "url": "Condition/1de12c25-2b3b-45c9-acf7-f13f2d5cfe8e"
    }
  }, {
    "fullUrl": "https://madie.cms.gov/Encounter/b060e0e1-c28a-42a2-a7c2-7e49df0ba942",
    "resource": {
      "resourceType": "Encounter",
      "id": "b060e0e1-c28a-42a2-a7c2-7e49df0ba942",
      "meta": {
        "profile": [ "http://hl7.org/fhir/us/qicore/StructureDefinition/qicore-encounter" ]
      },
      "status": "finished",
      "class": {
        "system": "http://terminology.hl7.org/CodeSystem/v3-ActCode",
        "code": "IMP",
        "display": "inpatient encounter"
      },
      "type": [ {
        "coding": [ {
          "system": "http://snomed.info/sct",
          "code": "32485007"
        } ]
      } ],
      "subject": {
        "reference": "Patient/56ae006d-ab1b-428d-8614-2ccd5d962650"
      },
      "period": {
        "start": "2026-11-20T08:00:00.000Z",
        "end": "2026-11-24T08:15:00.000Z"
      },
      "length": {
        "value": 4,
        "unit": "days"
      },
      "reasonReference": [ {
        "reference": "Condition/83058de3-5432-4ada-9247-15431d80f932"
      } ]
    },
    "request": {
      "method": "PUT",
      "url": "Encounter/b060e0e1-c28a-42a2-a7c2-7e49df0ba942"
    }
  }, {
    "fullUrl": "https://madie.cms.gov/MedicationRequest/4f6949b8-a954-4d2c-b002-7e1db5e7dc1d",
    "resource": {
      "resourceType": "MedicationRequest",
      "id": "4f6949b8-a954-4d2c-b002-7e1db5e7dc1d",
      "meta": {
        "profile": [ "http://hl7.org/fhir/us/qicore/StructureDefinition/qicore-medicationrequest" ]
      },
      "status": "active",
      "intent": "order",
      "category": [ {
        "coding": [ {
          "system": "http://terminology.hl7.org/CodeSystem/medicationrequest-category",
          "code": "community",
          "display": "Community",
          "userSelected": true
        } ]
      } ],
      "medicationCodeableConcept": {
        "coding": [ {
          "system": "http://www.nlm.nih.gov/research/umls/rxnorm",
          "code": "308351"
        } ]
      },
      "subject": {
        "reference": "Patient/56ae006d-ab1b-428d-8614-2ccd5d962650"
      },
      "authoredOn": "2026-11-20T08:00:00.000Z",
      "requester": {
        "reference": "Practitioner/example"
      }
    },
    "request": {
      "method": "PUT",
      "url": "MedicationRequest/4f6949b8-a954-4d2c-b002-7e1db5e7dc1d"
    }
  }, {
    "fullUrl": "https://madie.cms.gov/Coverage/00ef98ae-327c-4958-b6a9-c72ea3c83286",
    "resource": {
      "resourceType": "Coverage",
      "id": "00ef98ae-327c-4958-b6a9-c72ea3c83286",
      "meta": {
        "profile": [ "http://hl7.org/fhir/us/qicore/StructureDefinition/qicore-coverage" ]
      },
      "status": "active",
      "subscriberId": "523435",
      "beneficiary": {
        "reference": "Patient/56ae006d-ab1b-428d-8614-2ccd5d962650"
      },
      "relationship": {
        "coding": [ {
          "system": "http://terminology.hl7.org/CodeSystem/subscriber-relationship",
          "code": "self"
        } ]
      },
      "payor": [ {
        "reference": "Organization/c5a4e498-ee42-4dcb-b2cc-a590e5e6046d"
      } ]
    },
    "request": {
      "method": "PUT",
      "url": "Coverage/00ef98ae-327c-4958-b6a9-c72ea3c83286"
    }
  }, {
    "fullUrl": "https://madie.cms.gov/Condition/83058de3-5432-4ada-9247-15431d80f932",
    "resource": {
      "resourceType": "Condition",
      "id": "83058de3-5432-4ada-9247-15431d80f932",
      "meta": {
        "profile": [ "http://hl7.org/fhir/us/qicore/StructureDefinition/qicore-condition-encounter-diagnosis" ]
      },
      "clinicalStatus": {
        "coding": [ {
          "system": "http://terminology.hl7.org/CodeSystem/condition-clinical",
          "code": "active"
        } ]
      },
      "verificationStatus": {
        "coding": [ {
          "system": "http://terminology.hl7.org/CodeSystem/condition-ver-status",
          "code": "confirmed"
        } ]
      },
      "category": [ {
        "coding": [ {
          "system": "http://terminology.hl7.org/CodeSystem/condition-category",
          "code": "encounter-diagnosis",
          "display": "Encounter Diagnosis"
        } ]
      } ],
      "code": {
        "coding": [ {
          "system": "http://snomed.info/sct",
          "version": "2021-09",
          "code": "111297002",
          "display": "Nonparalytic stroke (disorder)",
          "userSelected": true
        } ]
      },
      "subject": {
        "reference": "Patient/56ae006d-ab1b-428d-8614-2ccd5d962650"
      },
      "recordedDate": "2026-10-13T08:00:00.000Z"
    },
    "request": {
      "method": "PUT",
      "url": "Condition/83058de3-5432-4ada-9247-15431d80f932"
    }
  }, {
    "fullUrl": "https://madie.cms.gov/Claim/5e363f4c-a24c-4fc9-aba5-d058707154ea",
    "resource": {
      "resourceType": "Claim",
      "id": "5e363f4c-a24c-4fc9-aba5-d058707154ea",
      "meta": {
        "profile": [ "http://hl7.org/fhir/us/qicore/StructureDefinition/qicore-claim" ]
      },
      "status": "active",
      "type": {
        "coding": [ {
          "system": "http://terminology.hl7.org/CodeSystem/claim-type",
          "code": "institutional"
        } ]
      },
      "use": "claim",
      "patient": {
        "reference": "Patient/56ae006d-ab1b-428d-8614-2ccd5d962650"
      },
      "created": "2026-12-01",
      "provider": {
        "reference": "Practitioner/262e22ed-e518-4354-a5df-c152ac60a970"
      },
      "priority": {
        "coding": [ {
          "system": "http://terminology.hl7.org/CodeSystem/processpriority",
          "code": "normal"
        } ]
      },
      "diagnosis": [ {
        "sequence": 1,
        "diagnosisCodeableConcept": {
          "coding": [ {
            "system": "http://hl7.org/fhir/sid/icd-10-cm",
            "code": "I63.00"
          } ]
        },
        "type": [ {
          "coding": [ {
            "system": "http://terminology.hl7.org/CodeSystem/ex-diagnosistype",
            "code": "principal"
          } ]
        } ]
      } ],
      "insurance": [ {
        "sequence": 1,
        "focal": true,
        "coverage": {
          "reference": "Coverage/5fa041661c76ba66d9959367"
        }
      } ],
      "item": [ {
        "sequence": 1,
        "diagnosisSequence": [ 1 ],
        "productOrService": {
          "coding": [ {
            "system": "http://terminology.hl7.org/CodeSystem/ex-USCLS",
            "code": "99555"
          } ]
        },
        "encounter": [ {
          "reference": "Encounter/b060e0e1-c28a-42a2-a7c2-7e49df0ba942"
        } ]
      } ]
    },
    "request": {
      "method": "PUT",
      "url": "Claim/5e363f4c-a24c-4fc9-aba5-d058707154ea"
    }
  }, {
    "fullUrl": "https://madie.cms.gov/Organization/c5a4e498-ee42-4dcb-b2cc-a590e5e6046d",
    "resource": {
      "resourceType": "Organization",
      "id": "c5a4e498-ee42-4dcb-b2cc-a590e5e6046d",
      "meta": {
        "profile": [ "http://hl7.org/fhir/us/qicore/StructureDefinition/qicore-organization" ]
      },
      "identifier": [ {
        "use": "temp",
        "system": "urn:oid:2.16.840.1.113883.4.4",
        "value": "21-3259825"
      } ],
      "active": true,
      "type": [ {
        "coding": [ {
          "system": "http://terminology.hl7.org/CodeSystem/organization-type",
          "code": "pay",
          "display": "Payer"
        } ]
      } ],
      "name": "Blue Cross Blue Shield of Texas",
      "telecom": [ {
        "system": "phone",
        "value": "(+1) 972-766-6900"
      } ],
      "address": [ {
        "use": "billing",
        "type": "postal",
        "line": [ "P.O. Box 660044" ],
        "city": "Dallas",
        "state": "TX",
        "postalCode": "75266-0044",
        "country": "USA"
      } ]
    },
    "request": {
      "method": "PUT",
      "url": "Organization/c5a4e498-ee42-4dcb-b2cc-a590e5e6046d"
    }
  }, {
    "fullUrl": "https://madie.cms.gov/Practitioner/262e22ed-e518-4354-a5df-c152ac60a970",
    "resource": {
      "resourceType": "Practitioner",
      "id": "262e22ed-e518-4354-a5df-c152ac60a970",
      "meta": {
        "profile": [ "http://hl7.org/fhir/us/qicore/StructureDefinition/qicore-practitioner" ]
      },
      "identifier": [ {
        "system": "http://hl7.org/fhir/sid/us-npi",
        "value": "9999999896"
      } ],
      "name": [ {
        "family": "Evil",
        "prefix": [ "Dr" ]
      } ]
    },
    "request": {
      "method": "PUT",
      "url": "Practitioner/262e22ed-e518-4354-a5df-c152ac60a970"
    }
  }, {
    "fullUrl": "https://madie.cms.gov/MeasureReport/71b26a14-7533-4479-82e3-7bc54d9ce0db",
    "resource": {
      "resourceType": "MeasureReport",
      "id": "71b26a14-7533-4479-82e3-7bc54d9ce0db",
      "meta": {
        "profile": [ "http://hl7.org/fhir/us/cqfmeasures/StructureDefinition/test-case-cqfm" ]
      },
      "contained": [ {
        "resourceType": "Parameters",
        "id": "48470396-4368-48a2-958b-7de70167ceda-parameters",
        "parameter": [ {
          "name": "subject",
          "valueString": "56ae006d-ab1b-428d-8614-2ccd5d962650"
        } ]
      } ],
      "extension": [ {
        "url": "http://hl7.org/fhir/StructureDefinition/cqf-inputParameters",
        "valueReference": {
          "reference": "#48470396-4368-48a2-958b-7de70167ceda-parameters"
        }
      }, {
        "url": "http://hl7.org/fhir/us/cqfmeasures/StructureDefinition/cqfm-testCaseDescription",
        "valueMarkdown": "Patient DC on Anticoagulant has a History of Atrial Ablation as confirmed"
      } ],
      "modifierExtension": [ {
        "url": "http://hl7.org/fhir/us/cqfmeasures/StructureDefinition/cqfm-isTestCase",
        "valueBoolean": true
      } ],
      "status": "complete",
      "type": "individual",
      "measure": "https://madie.cms.gov/Measure/CMS71FHIRSTKAnticoagAFFlutter",
      "period": {
        "start": "2026-01-01",
        "end": "2026-12-31"
      },
      "group": [ {
        "id": "Group_1",
        "population": [ {
          "id": "InitialPopulation_1",
          "code": {
            "coding": [ {
              "system": "http://terminology.hl7.org/CodeSystem/measure-population",
              "code": "initial-population",
              "display": "Initial Population"
            } ]
          },
          "count": 1
        }, {
          "id": "Denominator_1",
          "code": {
            "coding": [ {
              "system": "http://terminology.hl7.org/CodeSystem/measure-population",
              "code": "denominator",
              "display": "Denominator"
            } ]
          },
          "count": 1
        }, {
          "id": "DenominatorExclusion_1",
          "code": {
            "coding": [ {
              "system": "http://terminology.hl7.org/CodeSystem/measure-population",
              "code": "denominator-exclusion",
              "display": "Denominator Exclusion"
            } ]
          },
          "count": 0
        }, {
          "id": "Numerator_1",
          "code": {
            "coding": [ {
              "system": "http://terminology.hl7.org/CodeSystem/measure-population",
              "code": "numerator",
              "display": "Numerator"
            } ]
          },
          "count": 1
        }, {
          "id": "DenominatorException_1",
          "code": {
            "coding": [ {
              "system": "http://terminology.hl7.org/CodeSystem/measure-population",
              "code": "denominator-exception",
              "display": "Denominator Exception"
            } ]
          },
          "count": 0
        } ],
        "measureScore": {
          "value": 0.0
        }
      } ],
      "evaluatedResource": [ {
        "reference": "Patient/56ae006d-ab1b-428d-8614-2ccd5d962650"
      }, {
        "reference": "Condition/1de12c25-2b3b-45c9-acf7-f13f2d5cfe8e"
      }, {
        "reference": "Encounter/b060e0e1-c28a-42a2-a7c2-7e49df0ba942"
      }, {
        "reference": "MedicationRequest/4f6949b8-a954-4d2c-b002-7e1db5e7dc1d"
      }, {
        "reference": "Coverage/00ef98ae-327c-4958-b6a9-c72ea3c83286"
      }, {
        "reference": "Condition/83058de3-5432-4ada-9247-15431d80f932"
      }, {
        "reference": "Claim/5e363f4c-a24c-4fc9-aba5-d058707154ea"
      }, {
        "reference": "Organization/c5a4e498-ee42-4dcb-b2cc-a590e5e6046d"
      }, {
        "reference": "Practitioner/262e22ed-e518-4354-a5df-c152ac60a970"
      } ]
    },
    "request": {
      "method": "PUT",
      "url": "MeasureReport/71b26a14-7533-4479-82e3-7bc54d9ce0db"
    }
  } ]
}