{
  "resourceType": "Bundle",
  "id": "633c9d030968f8012250fc82",
  "type": "transaction",
  "entry": [ {
    "fullUrl": "https://madie.cms.gov/Patient/c7da5140-b9ed-4122-a159-914963fe387f",
    "resource": {
      "resourceType": "Patient",
      "id": "c7da5140-b9ed-4122-a159-914963fe387f",
      "meta": {
        "profile": [ "http://hl7.org/fhir/us/qicore/StructureDefinition/qicore-patient" ]
      },
      "text": {
        "status": "generated",
        "div": "<div xmlns=\"http://www.w3.org/1999/xhtml\"><div class=\"hapiHeaderText\">CMOdurED_ED&gt;1hrNoObsBFEnc <b>DENEXFAIL </b></div><table class=\"hapiPropertyTable\"><tbody><tr><td>Identifier</td><td>9cbedc03548b163b74bc78c7e9738116</td></tr><tr><td>Date of birth</td><td><span>18 September 1985</span></td></tr></tbody></table></div>"
      },
      "extension": [ {
        "url": "http://hl7.org/fhir/us/core/StructureDefinition/us-core-race",
        "extension": [ {
          "url": "ombCategory",
          "valueCoding": {
            "system": "urn:oid:2.16.840.1.113883.6.238",
            "code": "1002-5",
            "display": "American Indian or Alaska Native",
            "userSelected": true
          }
        }, {
          "url": "text",
          "valueString": "American Indian or Alaska Native"
        } ]
      }, {
        "url": "http://hl7.org/fhir/us/core/StructureDefinition/us-core-ethnicity",
        "extension": [ {
          "url": "ombCategory",
          "valueCoding": {
            "system": "urn:oid:2.16.840.1.113883.6.238",
            "code": "2135-2",
            "display": "Hispanic or Latino",
            "userSelected": true
          }
        }, {
          "url": "text",
          "valueString": "Hispanic or Latino"
        } ]
      } ],
      "identifier": [ {
        "type": {
          "coding": [ {
            "system": "http://terminology.hl7.org/CodeSystem/v2-0203",
            "code": "MR"
          } ]
        },
        "system": "https://bonnie-fhir.healthit.gov/",
        "value": "633c9d030968f8012250fc82"
      } ],
      "active": true,
      "name": [ {
        "use": "usual",
        "family": "DENEXFail",
        "given": [ "CMOdurED_ED>1hrNoObsBFEnc" ]
      } ],
      "gender": "female",
      "birthDate": "1986-09-18"
    },
    "request": {
      "method": "PUT",
      "url": "Patient/c7da5140-b9ed-4122-a159-914963fe387f"
    }
  }, {
    "fullUrl": "https://madie.cms.gov/Condition/7b9a18ac-6654-4ea4-a39a-cf192f0508d3",
    "resource": {
      "resourceType": "Condition",
      "id": "7b9a18ac-6654-4ea4-a39a-cf192f0508d3",
      "meta": {
        "profile": [ "http://hl7.org/fhir/us/qicore/StructureDefinition/qicore-condition-problems-health-concerns" ]
      },
      "clinicalStatus": {
        "coding": [ {
          "system": "http://terminology.hl7.org/CodeSystem/condition-clinical",
          "code": "inactive"
        } ]
      },
      "verificationStatus": {
        "coding": [ {
          "system": "http://terminology.hl7.org/CodeSystem/condition-ver-status",
          "code": "confirmed"
        } ]
      },
      "category": [ {
        "coding": [ {
          "system": "http://terminology.hl7.org/CodeSystem/condition-category",
          "code": "problem-list-item"
        } ]
      } ],
      "code": {
        "coding": [ {
          "system": "http://hl7.org/fhir/sid/icd-9-cm",
          "code": "427.31"
        }, {
          "system": "http://hl7.org/fhir/sid/icd-10-cm",
          "code": "I48.0"
        }, {
          "system": "http://snomed.info/sct",
          "code": "5370000"
        } ]
      },
      "subject": {
        "reference": "Patient/c7da5140-b9ed-4122-a159-914963fe387f"
      },
      "onsetDateTime": "2026-10-01T09:00:00.000Z",
      "abatementDateTime": "2026-10-12T00:15:00.000Z"
    },
    "request": {
      "method": "PUT",
      "url": "Condition/7b9a18ac-6654-4ea4-a39a-cf192f0508d3"
    }
  }, {
    "fullUrl": "https://madie.cms.gov/Encounter/5dcdb653-4df5-43c2-bd99-1aec4ed9baae",
    "resource": {
      "resourceType": "Encounter",
      "id": "5dcdb653-4df5-43c2-bd99-1aec4ed9baae",
      "meta": {
        "profile": [ "http://hl7.org/fhir/us/qicore/StructureDefinition/qicore-encounter" ]
      },
      "status": "finished",
      "class": {
        "system": "http://terminology.hl7.org/CodeSystem/v3-ActCode",
        "code": "EMER",
        "display": "emergency"
      },
      "type": [ {
        "coding": [ {
          "system": "http://snomed.info/sct",
          "code": "4525004"
        } ]
      } ],
      "subject": {
        "reference": "Patient/c7da5140-b9ed-4122-a159-914963fe387f"
      },
      "period": {
        "start": "2026-09-30T07:59:00.000Z",
        "end": "2026-09-30T09:00:00.000Z"
      },
      "length": {
        "value": 0,
        "unit": "days"
      }
    },
    "request": {
      "method": "PUT",
      "url": "Encounter/5dcdb653-4df5-43c2-bd99-1aec4ed9baae"
    }
  }, {
    "fullUrl": "https://madie.cms.gov/Encounter/6bf09163-2457-4c2e-bef1-993f01163c97",
    "resource": {
      "resourceType": "Encounter",
      "id": "6bf09163-2457-4c2e-bef1-993f01163c97",
      "meta": {
        "profile": [ "http://hl7.org/fhir/us/qicore/StructureDefinition/qicore-encounter" ]
      },
      "status": "finished",
      "class": {
        "system": "http://terminology.hl7.org/CodeSystem/v3-ActCode",
        "code": "IMP",
        "display": "inpatient encounter"
      },
      "type": [ {
        "coding": [ {
          "system": "http://snomed.info/sct",
          "code": "32485007"
        } ]
      } ],
      "subject": {
        "reference": "Patient/c7da5140-b9ed-4122-a159-914963fe387f"
      },
      "period": {
        "start": "2026-09-30T10:01:00.000Z",
        "end": "2026-10-12T00:15:00.000Z"
      },
      "length": {
        "value": 12,
        "unit": "days"
      },
      "reasonReference": [ {
        "reference": "Condition/7b9a18ac-6654-4ea4-a39a-cf192f0508d3"
      } ]
    },
    "request": {
      "method": "PUT",
      "url": "Encounter/6bf09163-2457-4c2e-bef1-993f01163c97"
    }
  }, {
    "fullUrl": "https://madie.cms.gov/Claim/dba79cc5-b77a-4b0d-b8ef-352ebecc01bc",
    "resource": {
      "resourceType": "Claim",
      "id": "dba79cc5-b77a-4b0d-b8ef-352ebecc01bc",
      "meta": {
        "profile": [ "http://hl7.org/fhir/us/qicore/StructureDefinition/qicore-claim" ]
      },
      "status": "active",
      "type": {
        "coding": [ {
          "system": "http://terminology.hl7.org/CodeSystem/claim-type",
          "code": "institutional"
        } ]
      },
      "use": "claim",
      "patient": {
        "reference": "Patient/c7da5140-b9ed-4122-a159-914963fe387f"
      },
      "created": "2026-12-01",
      "provider": {
        "reference": "Practitioner/practitioner-123456"
      },
      "priority": {
        "coding": [ {
          "system": "http://terminology.hl7.org/CodeSystem/processpriority",
          "code": "normal"
        } ]
      },
      "diagnosis": [ {
        "sequence": 1,
        "diagnosisCodeableConcept": {
          "coding": [ {
            "system": "http://hl7.org/fhir/sid/icd-10-cm",
            "code": "I63.00"
          } ]
        },
        "type": [ {
          "coding": [ {
            "system": "http://terminology.hl7.org/CodeSystem/ex-diagnosistype",
            "code": "principal"
          } ]
        } ]
      } ],
      "insurance": [ {
        "sequence": 1,
        "focal": true,
        "coverage": {
          "reference": "Coverage/5fa041661c76ba66d9959367"
        }
      } ],
      "item": [ {
        "sequence": 1,
        "diagnosisSequence": [ 1 ],
        "productOrService": {
          "coding": [ {
            "system": "http://terminology.hl7.org/CodeSystem/ex-USCLS",
            "code": "99555"
          } ]
        },
        "encounter": [ {
          "reference": "Encounter/6bf09163-2457-4c2e-bef1-993f01163c97"
        } ]
      } ]
    },
    "request": {
      "method": "PUT",
      "url": "Claim/dba79cc5-b77a-4b0d-b8ef-352ebecc01bc"
    }
  }, {
    "fullUrl": "https://madie.cms.gov/ServiceRequest/19991dd3-9055-4f44-8cdd-289d7f8213c8",
    "resource": {
      "resourceType": "ServiceRequest",
      "id": "19991dd3-9055-4f44-8cdd-289d7f8213c8",
      "meta": {
        "profile": [ "http://hl7.org/fhir/us/qicore/StructureDefinition/qicore-servicerequest" ]
      },
      "status": "active",
      "intent": "order",
      "code": {
        "coding": [ {
          "system": "http://snomed.info/sct",
          "code": "133918004"
        } ]
      },
      "subject": {
        "reference": "Patient/c7da5140-b9ed-4122-a159-914963fe387f"
      },
      "authoredOn": "2026-09-30T08:01:00.000Z"
    },
    "request": {
      "method": "PUT",
      "url": "ServiceRequest/19991dd3-9055-4f44-8cdd-289d7f8213c8"
    }
  }, {
    "fullUrl": "https://madie.cms.gov/Coverage/3fdb08e8-8dfa-4a7d-8a17-134e42f56b6d",
    "resource": {
      "resourceType": "Coverage",
      "id": "3fdb08e8-8dfa-4a7d-8a17-134e42f56b6d",
      "status": "active",
      "subscriberId": "523435",
      "beneficiary": {
        "reference": "Patient/c7da5140-b9ed-4122-a159-914963fe387f"
      },
      "relationship": {
        "coding": [ {
          "system": "http://terminology.hl7.org/CodeSystem/subscriber-relationship",
          "code": "self"
        } ]
      },
      "period": {
        "start": "1986-09-18T08:00:00.000Z"
      },
      "payor": [ {
        "reference": "Organization/bf3d41f2-692a-4c63-9727-e99479b1370b"
      } ]
    },
    "request": {
      "method": "PUT",
      "url": "Coverage/3fdb08e8-8dfa-4a7d-8a17-134e42f56b6d"
    }
  }, {
    "fullUrl": "https://madie.cms.gov/Condition/05c950b4-7104-4bc7-b263-6cd11db6e419",
    "resource": {
      "resourceType": "Condition",
      "id": "05c950b4-7104-4bc7-b263-6cd11db6e419",
      "meta": {
        "profile": [ "http://hl7.org/fhir/us/qicore/StructureDefinition/qicore-condition-encounter-diagnosis" ]
      },
      "clinicalStatus": {
        "coding": [ {
          "system": "http://terminology.hl7.org/CodeSystem/condition-clinical",
          "code": "active"
        } ]
      },
      "verificationStatus": {
        "coding": [ {
          "system": "http://terminology.hl7.org/CodeSystem/condition-ver-status",
          "code": "confirmed"
        } ]
      },
      "category": [ {
        "coding": [ {
          "system": "http://terminology.hl7.org/CodeSystem/condition-category",
          "code": "encounter-diagnosis",
          "display": "Encounter Diagnosis"
        } ]
      } ],
      "code": {
        "coding": [ {
          "system": "http://snomed.info/sct",
          "version": "2021-09",
          "code": "111297002",
          "display": "Nonparalytic stroke (disorder)",
          "userSelected": true
        } ]
      },
      "subject": {
        "reference": "Patient/c7da5140-b9ed-4122-a159-914963fe387f"
      },
      "recordedDate": "2026-10-13T08:00:00.000Z"
    },
    "request": {
      "method": "PUT",
      "url": "Condition/05c950b4-7104-4bc7-b263-6cd11db6e419"
    }
  }, {
    "fullUrl": "https://madie.cms.gov/Organization/bf3d41f2-692a-4c63-9727-e99479b1370b",
    "resource": {
      "resourceType": "Organization",
      "id": "bf3d41f2-692a-4c63-9727-e99479b1370b",
      "meta": {
        "profile": [ "http://hl7.org/fhir/us/qicore/StructureDefinition/qicore-organization" ]
      },
      "identifier": [ {
        "use": "temp",
        "system": "urn:oid:2.16.840.1.113883.4.4",
        "value": "21-3259825"
      } ],
      "active": true,
      "type": [ {
        "coding": [ {
          "system": "http://terminology.hl7.org/CodeSystem/organization-type",
          "code": "pay",
          "display": "Payer"
        } ]
      } ],
      "name": "Blue Cross Blue Shield of Texas",
      "telecom": [ {
        "system": "phone",
        "value": "(+1) 972-766-6900"
      } ],
      "address": [ {
        "use": "billing",
        "type": "postal",
        "line": [ "P.O. Box 660044" ],
        "city": "Dallas",
        "state": "TX",
        "postalCode": "75266-0044",
        "country": "USA"
      } ]
    },
    "request": {
      "method": "PUT",
      "url": "Organization/bf3d41f2-692a-4c63-9727-e99479b1370b"
    }
  }, {
    "fullUrl": "https://madie.cms.gov/MeasureReport/79d1d1c8-3164-4906-aa24-b2d9f35770ba",
    "resource": {
      "resourceType": "MeasureReport",
      "id": "79d1d1c8-3164-4906-aa24-b2d9f35770ba",
      "meta": {
        "profile": [ "http://hl7.org/fhir/us/cqfmeasures/StructureDefinition/test-case-cqfm" ]
      },
      "contained": [ {
        "resourceType": "Parameters",
        "id": "7bb48784-9c60-46d6-b489-e7486a5967e2-parameters",
        "parameter": [ {
          "name": "subject",
          "valueString": "c7da5140-b9ed-4122-a159-914963fe387f"
        } ]
      } ],
      "extension": [ {
        "url": "http://hl7.org/fhir/StructureDefinition/cqf-inputParameters",
        "valueReference": {
          "reference": "#7bb48784-9c60-46d6-b489-e7486a5967e2-parameters"
        }
      }, {
        "url": "http://hl7.org/fhir/us/cqfmeasures/StructureDefinition/cqfm-testCaseDescription",
        "valueMarkdown": "Patient receives CMO during ED. ED ends 61 min before inaptient start. No Obs. Testing HospitalizationWithObservation function\n"
      } ],
      "modifierExtension": [ {
        "url": "http://hl7.org/fhir/us/cqfmeasures/StructureDefinition/cqfm-isTestCase",
        "valueBoolean": true
      } ],
      "status": "complete",
      "type": "individual",
      "measure": "https://madie.cms.gov/Measure/CMS71FHIRSTKAnticoagAFFlutter",
      "period": {
        "start": "2026-01-01",
        "end": "2026-12-31"
      },
      "group": [ {
        "id": "Group_1",
        "population": [ {
          "id": "InitialPopulation_1",
          "code": {
            "coding": [ {
              "system": "http://terminology.hl7.org/CodeSystem/measure-population",
              "code": "initial-population",
              "display": "Initial Population"
            } ]
          },
          "count": 1
        }, {
          "id": "Denominator_1",
          "code": {
            "coding": [ {
              "system": "http://terminology.hl7.org/CodeSystem/measure-population",
              "code": "denominator",
              "display": "Denominator"
            } ]
          },
          "count": 1
        }, {
          "id": "DenominatorExclusion_1",
          "code": {
            "coding": [ {
              "system": "http://terminology.hl7.org/CodeSystem/measure-population",
              "code": "denominator-exclusion",
              "display": "Denominator Exclusion"
            } ]
          },
          "count": 0
        }, {
          "id": "Numerator_1",
          "code": {
            "coding": [ {
              "system": "http://terminology.hl7.org/CodeSystem/measure-population",
              "code": "numerator",
              "display": "Numerator"
            } ]
          },
          "count": 0
        }, {
          "id": "DenominatorException_1",
          "code": {
            "coding": [ {
              "system": "http://terminology.hl7.org/CodeSystem/measure-population",
              "code": "denominator-exception",
              "display": "Denominator Exception"
            } ]
          },
          "count": 0
        } ],
        "measureScore": {
          "value": 0.0
        }
      } ],
      "evaluatedResource": [ {
        "reference": "Patient/c7da5140-b9ed-4122-a159-914963fe387f"
      }, {
        "reference": "Condition/7b9a18ac-6654-4ea4-a39a-cf192f0508d3"
      }, {
        "reference": "Encounter/5dcdb653-4df5-43c2-bd99-1aec4ed9baae"
      }, {
        "reference": "Encounter/6bf09163-2457-4c2e-bef1-993f01163c97"
      }, {
        "reference": "Claim/dba79cc5-b77a-4b0d-b8ef-352ebecc01bc"
      }, {
        "reference": "ServiceRequest/19991dd3-9055-4f44-8cdd-289d7f8213c8"
      }, {
        "reference": "Coverage/3fdb08e8-8dfa-4a7d-8a17-134e42f56b6d"
      }, {
        "reference": "Condition/05c950b4-7104-4bc7-b263-6cd11db6e419"
      }, {
        "reference": "Organization/bf3d41f2-692a-4c63-9727-e99479b1370b"
      } ]
    },
    "request": {
      "method": "PUT",
      "url": "MeasureReport/79d1d1c8-3164-4906-aa24-b2d9f35770ba"
    }
  } ]
}