{
  "resourceType": "Bundle",
  "id": "633c9d040968f8012250fcb4",
  "type": "transaction",
  "entry": [ {
    "fullUrl": "https://madie.cms.gov/Patient/86d68293-66ae-425b-bc4a-9ce429f4621e",
    "resource": {
      "resourceType": "Patient",
      "id": "86d68293-66ae-425b-bc4a-9ce429f4621e",
      "meta": {
        "profile": [ "http://hl7.org/fhir/us/qicore/StructureDefinition/qicore-patient" ]
      },
      "text": {
        "status": "generated",
        "div": "<div xmlns=\"http://www.w3.org/1999/xhtml\"><div class=\"hapiHeaderText\">CMPdurEnc_NoEDNoObsBFEnc_DateTime <b>DENEXPASS </b></div><table class=\"hapiPropertyTable\"><tbody><tr><td>Identifier</td><td>669cd2691aaab3d70b8b307e64426a43</td></tr><tr><td>Date of birth</td><td><span>18 September 1985</span></td></tr></tbody></table></div>"
      },
      "extension": [ {
        "url": "http://hl7.org/fhir/us/core/StructureDefinition/us-core-race",
        "extension": [ {
          "url": "ombCategory",
          "valueCoding": {
            "system": "urn:oid:2.16.840.1.113883.6.238",
            "code": "1002-5",
            "display": "American Indian or Alaska Native",
            "userSelected": true
          }
        }, {
          "url": "text",
          "valueString": "American Indian or Alaska Native"
        } ]
      }, {
        "url": "http://hl7.org/fhir/us/core/StructureDefinition/us-core-ethnicity",
        "extension": [ {
          "url": "ombCategory",
          "valueCoding": {
            "system": "urn:oid:2.16.840.1.113883.6.238",
            "code": "2135-2",
            "display": "Hispanic or Latino",
            "userSelected": true
          }
        }, {
          "url": "text",
          "valueString": "Hispanic or Latino"
        } ]
      } ],
      "identifier": [ {
        "type": {
          "coding": [ {
            "system": "http://terminology.hl7.org/CodeSystem/v2-0203",
            "code": "MR"
          } ]
        },
        "system": "https://bonnie-fhir.healthit.gov/",
        "value": "633c9d040968f8012250fcb4"
      } ],
      "active": true,
      "name": [ {
        "use": "usual",
        "family": "DENEXPass",
        "given": [ "CMPdurEnc_NoEDNoObsBFEnc_DateTime" ]
      } ],
      "gender": "female",
      "birthDate": "1986-09-18"
    },
    "request": {
      "method": "PUT",
      "url": "Patient/86d68293-66ae-425b-bc4a-9ce429f4621e"
    }
  }, {
    "fullUrl": "https://madie.cms.gov/Condition/3950d0ae-fb77-475a-8d2c-1d387c7c3a2e",
    "resource": {
      "resourceType": "Condition",
      "id": "3950d0ae-fb77-475a-8d2c-1d387c7c3a2e",
      "meta": {
        "profile": [ "http://hl7.org/fhir/us/qicore/StructureDefinition/qicore-condition-problems-health-concerns" ]
      },
      "clinicalStatus": {
        "coding": [ {
          "system": "http://terminology.hl7.org/CodeSystem/condition-clinical",
          "code": "inactive"
        } ]
      },
      "verificationStatus": {
        "coding": [ {
          "system": "http://terminology.hl7.org/CodeSystem/condition-ver-status",
          "code": "confirmed"
        } ]
      },
      "category": [ {
        "coding": [ {
          "system": "http://terminology.hl7.org/CodeSystem/condition-category",
          "code": "problem-list-item"
        } ]
      } ],
      "code": {
        "coding": [ {
          "system": "http://hl7.org/fhir/sid/icd-10-cm",
          "code": "I48.20"
        }, {
          "system": "http://hl7.org/fhir/sid/icd-10-cm",
          "code": "I48.0"
        }, {
          "system": "http://snomed.info/sct",
          "code": "5370000"
        } ]
      },
      "subject": {
        "reference": "Patient/86d68293-66ae-425b-bc4a-9ce429f4621e"
      },
      "onsetDateTime": "2026-10-01T09:00:00.000Z",
      "abatementDateTime": "2026-10-12T00:15:00.000Z"
    },
    "request": {
      "method": "PUT",
      "url": "Condition/3950d0ae-fb77-475a-8d2c-1d387c7c3a2e"
    }
  }, {
    "fullUrl": "https://madie.cms.gov/Encounter/da0e18a7-f0e1-4eaf-9d8d-4d193696fd79",
    "resource": {
      "resourceType": "Encounter",
      "id": "da0e18a7-f0e1-4eaf-9d8d-4d193696fd79",
      "meta": {
        "profile": [ "http://hl7.org/fhir/us/qicore/StructureDefinition/qicore-encounter" ]
      },
      "status": "finished",
      "class": {
        "system": "http://terminology.hl7.org/CodeSystem/v3-ActCode",
        "code": "IMP",
        "display": "inpatient encounter"
      },
      "type": [ {
        "coding": [ {
          "system": "http://snomed.info/sct",
          "code": "32485007"
        } ]
      } ],
      "subject": {
        "reference": "Patient/86d68293-66ae-425b-bc4a-9ce429f4621e"
      },
      "period": {
        "start": "2026-10-01T09:00:00.000Z",
        "end": "2026-10-12T00:15:00.000Z"
      },
      "length": {
        "value": 11,
        "unit": "days"
      },
      "reasonReference": [ {
        "reference": "Condition/3950d0ae-fb77-475a-8d2c-1d387c7c3a2e"
      } ]
    },
    "request": {
      "method": "PUT",
      "url": "Encounter/da0e18a7-f0e1-4eaf-9d8d-4d193696fd79"
    }
  }, {
    "fullUrl": "https://madie.cms.gov/Procedure/535fef7d-4ee7-4284-99a4-d856b74a1e1e",
    "resource": {
      "resourceType": "Procedure",
      "id": "535fef7d-4ee7-4284-99a4-d856b74a1e1e",
      "meta": {
        "profile": [ "http://hl7.org/fhir/us/qicore/StructureDefinition/qicore-procedure" ]
      },
      "extension": [ {
        "url": "http://hl7.org/fhir/us/qicore/StructureDefinition/qicore-recorded",
        "valueDateTime": "2026-11-19T13:35:00.000Z"
      } ],
      "status": "completed",
      "code": {
        "coding": [ {
          "system": "http://snomed.info/sct",
          "code": "133918004"
        } ]
      },
      "subject": {
        "reference": "Patient/86d68293-66ae-425b-bc4a-9ce429f4621e"
      },
      "performedDateTime": "2026-10-01T09:01:00.000Z"
    },
    "request": {
      "method": "PUT",
      "url": "Procedure/535fef7d-4ee7-4284-99a4-d856b74a1e1e"
    }
  }, {
    "fullUrl": "https://madie.cms.gov/Coverage/9c5d44c0-fe37-4e24-905e-d8c11bb9a78c",
    "resource": {
      "resourceType": "Coverage",
      "id": "9c5d44c0-fe37-4e24-905e-d8c11bb9a78c",
      "meta": {
        "profile": [ "http://hl7.org/fhir/us/qicore/StructureDefinition/qicore-coverage" ]
      },
      "status": "active",
      "subscriberId": "523435",
      "beneficiary": {
        "reference": "Patient/86d68293-66ae-425b-bc4a-9ce429f4621e"
      },
      "relationship": {
        "coding": [ {
          "system": "http://terminology.hl7.org/CodeSystem/subscriber-relationship",
          "code": "self"
        } ]
      },
      "payor": [ {
        "reference": "Organization/f5b8ea4e-3d63-43d2-ad23-89426567cc09"
      } ]
    },
    "request": {
      "method": "PUT",
      "url": "Coverage/9c5d44c0-fe37-4e24-905e-d8c11bb9a78c"
    }
  }, {
    "fullUrl": "https://madie.cms.gov/Condition/80b208ec-43cd-40f0-9647-999658b466c6",
    "resource": {
      "resourceType": "Condition",
      "id": "80b208ec-43cd-40f0-9647-999658b466c6",
      "meta": {
        "profile": [ "http://hl7.org/fhir/us/qicore/StructureDefinition/qicore-condition-encounter-diagnosis" ]
      },
      "clinicalStatus": {
        "coding": [ {
          "system": "http://terminology.hl7.org/CodeSystem/condition-clinical",
          "code": "active"
        } ]
      },
      "verificationStatus": {
        "coding": [ {
          "system": "http://terminology.hl7.org/CodeSystem/condition-ver-status",
          "code": "confirmed"
        } ]
      },
      "category": [ {
        "coding": [ {
          "system": "http://terminology.hl7.org/CodeSystem/condition-category",
          "code": "encounter-diagnosis",
          "display": "Encounter Diagnosis"
        } ]
      } ],
      "code": {
        "coding": [ {
          "system": "http://snomed.info/sct",
          "version": "2021-09",
          "code": "111297002",
          "display": "Nonparalytic stroke (disorder)",
          "userSelected": true
        } ]
      },
      "subject": {
        "reference": "Patient/86d68293-66ae-425b-bc4a-9ce429f4621e"
      },
      "recordedDate": "2026-10-13T08:00:00.000Z"
    },
    "request": {
      "method": "PUT",
      "url": "Condition/80b208ec-43cd-40f0-9647-999658b466c6"
    }
  }, {
    "fullUrl": "https://madie.cms.gov/Claim/b1d7836a-45f2-4456-ab34-a54cce6b07e3",
    "resource": {
      "resourceType": "Claim",
      "id": "b1d7836a-45f2-4456-ab34-a54cce6b07e3",
      "meta": {
        "profile": [ "http://hl7.org/fhir/us/qicore/StructureDefinition/qicore-claim" ]
      },
      "status": "active",
      "type": {
        "coding": [ {
          "system": "http://terminology.hl7.org/CodeSystem/claim-type",
          "code": "institutional"
        } ]
      },
      "use": "claim",
      "patient": {
        "reference": "Patient/86d68293-66ae-425b-bc4a-9ce429f4621e"
      },
      "created": "2026-12-01",
      "provider": {
        "reference": "Practitioner/eacb5375-8ef0-4396-8249-84fc0f4b9a02"
      },
      "priority": {
        "coding": [ {
          "system": "http://terminology.hl7.org/CodeSystem/processpriority",
          "code": "normal"
        } ]
      },
      "diagnosis": [ {
        "sequence": 1,
        "diagnosisCodeableConcept": {
          "coding": [ {
            "system": "http://hl7.org/fhir/sid/icd-10-cm",
            "code": "I63.00"
          } ]
        },
        "type": [ {
          "coding": [ {
            "system": "http://terminology.hl7.org/CodeSystem/ex-diagnosistype",
            "code": "principal"
          } ]
        } ]
      } ],
      "insurance": [ {
        "sequence": 1,
        "focal": true,
        "coverage": {
          "reference": "Coverage/5fa041661c76ba66d9959367"
        }
      } ],
      "item": [ {
        "sequence": 1,
        "diagnosisSequence": [ 1 ],
        "productOrService": {
          "coding": [ {
            "system": "http://terminology.hl7.org/CodeSystem/ex-USCLS",
            "code": "99555"
          } ]
        },
        "encounter": [ {
          "reference": "Encounter/da0e18a7-f0e1-4eaf-9d8d-4d193696fd79"
        } ]
      } ]
    },
    "request": {
      "method": "PUT",
      "url": "Claim/b1d7836a-45f2-4456-ab34-a54cce6b07e3"
    }
  }, {
    "fullUrl": "https://madie.cms.gov/Organization/f5b8ea4e-3d63-43d2-ad23-89426567cc09",
    "resource": {
      "resourceType": "Organization",
      "id": "f5b8ea4e-3d63-43d2-ad23-89426567cc09",
      "meta": {
        "profile": [ "http://hl7.org/fhir/us/qicore/StructureDefinition/qicore-organization" ]
      },
      "identifier": [ {
        "use": "temp",
        "system": "urn:oid:2.16.840.1.113883.4.4",
        "value": "21-3259825"
      } ],
      "active": true,
      "type": [ {
        "coding": [ {
          "system": "http://terminology.hl7.org/CodeSystem/organization-type",
          "code": "pay",
          "display": "Payer"
        } ]
      } ],
      "name": "Blue Cross Blue Shield of Texas",
      "telecom": [ {
        "system": "phone",
        "value": "(+1) 972-766-6900"
      } ],
      "address": [ {
        "use": "billing",
        "type": "postal",
        "line": [ "P.O. Box 660044" ],
        "city": "Dallas",
        "state": "TX",
        "postalCode": "75266-0044",
        "country": "USA"
      } ]
    },
    "request": {
      "method": "PUT",
      "url": "Organization/f5b8ea4e-3d63-43d2-ad23-89426567cc09"
    }
  }, {
    "fullUrl": "https://madie.cms.gov/Practitioner/eacb5375-8ef0-4396-8249-84fc0f4b9a02",
    "resource": {
      "resourceType": "Practitioner",
      "id": "eacb5375-8ef0-4396-8249-84fc0f4b9a02",
      "meta": {
        "profile": [ "http://hl7.org/fhir/us/qicore/StructureDefinition/qicore-practitioner" ]
      },
      "identifier": [ {
        "system": "http://hl7.org/fhir/sid/us-npi",
        "value": "9999999896"
      } ],
      "name": [ {
        "family": "Evil",
        "prefix": [ "Dr" ]
      } ]
    },
    "request": {
      "method": "PUT",
      "url": "Practitioner/eacb5375-8ef0-4396-8249-84fc0f4b9a02"
    }
  }, {
    "fullUrl": "https://madie.cms.gov/MeasureReport/2bacff6d-e0b9-4af8-a4d8-2eafdb03300c",
    "resource": {
      "resourceType": "MeasureReport",
      "id": "2bacff6d-e0b9-4af8-a4d8-2eafdb03300c",
      "meta": {
        "profile": [ "http://hl7.org/fhir/us/cqfmeasures/StructureDefinition/test-case-cqfm" ]
      },
      "contained": [ {
        "resourceType": "Parameters",
        "id": "3db79c36-fd65-49e3-8cb0-caf12c1f4713-parameters",
        "parameter": [ {
          "name": "subject",
          "valueString": "86d68293-66ae-425b-bc4a-9ce429f4621e"
        } ]
      } ],
      "extension": [ {
        "url": "http://hl7.org/fhir/StructureDefinition/cqf-inputParameters",
        "valueReference": {
          "reference": "#3db79c36-fd65-49e3-8cb0-caf12c1f4713-parameters"
        }
      }, {
        "url": "http://hl7.org/fhir/us/cqfmeasures/StructureDefinition/cqfm-testCaseDescription",
        "valueMarkdown": "Patient receives CMP during inpatient encounter. No ED. No Obs. Testing HospitalizationWithObservation function\n"
      } ],
      "modifierExtension": [ {
        "url": "http://hl7.org/fhir/us/cqfmeasures/StructureDefinition/cqfm-isTestCase",
        "valueBoolean": true
      } ],
      "status": "complete",
      "type": "individual",
      "measure": "https://madie.cms.gov/Measure/CMS71FHIRSTKAnticoagAFFlutter",
      "period": {
        "start": "2026-01-01",
        "end": "2026-12-31"
      },
      "group": [ {
        "id": "Group_1",
        "population": [ {
          "id": "InitialPopulation_1",
          "code": {
            "coding": [ {
              "system": "http://terminology.hl7.org/CodeSystem/measure-population",
              "code": "initial-population",
              "display": "Initial Population"
            } ]
          },
          "count": 1
        }, {
          "id": "Denominator_1",
          "code": {
            "coding": [ {
              "system": "http://terminology.hl7.org/CodeSystem/measure-population",
              "code": "denominator",
              "display": "Denominator"
            } ]
          },
          "count": 1
        }, {
          "id": "DenominatorExclusion_1",
          "code": {
            "coding": [ {
              "system": "http://terminology.hl7.org/CodeSystem/measure-population",
              "code": "denominator-exclusion",
              "display": "Denominator Exclusion"
            } ]
          },
          "count": 1
        }, {
          "id": "Numerator_1",
          "code": {
            "coding": [ {
              "system": "http://terminology.hl7.org/CodeSystem/measure-population",
              "code": "numerator",
              "display": "Numerator"
            } ]
          },
          "count": 0
        }, {
          "id": "DenominatorException_1",
          "code": {
            "coding": [ {
              "system": "http://terminology.hl7.org/CodeSystem/measure-population",
              "code": "denominator-exception",
              "display": "Denominator Exception"
            } ]
          },
          "count": 0
        } ],
        "measureScore": {
          "value": 0.0
        }
      } ],
      "evaluatedResource": [ {
        "reference": "Patient/86d68293-66ae-425b-bc4a-9ce429f4621e"
      }, {
        "reference": "Condition/3950d0ae-fb77-475a-8d2c-1d387c7c3a2e"
      }, {
        "reference": "Encounter/da0e18a7-f0e1-4eaf-9d8d-4d193696fd79"
      }, {
        "reference": "Procedure/535fef7d-4ee7-4284-99a4-d856b74a1e1e"
      }, {
        "reference": "Coverage/9c5d44c0-fe37-4e24-905e-d8c11bb9a78c"
      }, {
        "reference": "Condition/80b208ec-43cd-40f0-9647-999658b466c6"
      }, {
        "reference": "Claim/b1d7836a-45f2-4456-ab34-a54cce6b07e3"
      }, {
        "reference": "Organization/f5b8ea4e-3d63-43d2-ad23-89426567cc09"
      }, {
        "reference": "Practitioner/eacb5375-8ef0-4396-8249-84fc0f4b9a02"
      } ]
    },
    "request": {
      "method": "PUT",
      "url": "MeasureReport/2bacff6d-e0b9-4af8-a4d8-2eafdb03300c"
    }
  } ]
}