{
  "resourceType": "Bundle",
  "id": "633c9d030968f8012250fc7e",
  "type": "transaction",
  "entry": [ {
    "fullUrl": "https://madie.cms.gov/Patient/5704cb0f-a88b-4df3-b3d3-5438d3de4f6d",
    "resource": {
      "resourceType": "Patient",
      "id": "5704cb0f-a88b-4df3-b3d3-5438d3de4f6d",
      "meta": {
        "profile": [ "http://hl7.org/fhir/us/qicore/StructureDefinition/qicore-patient" ]
      },
      "text": {
        "status": "generated",
        "div": "<div xmlns=\"http://www.w3.org/1999/xhtml\"><div class=\"hapiHeaderText\"> CMOdurObs_ED&lt;1hrObs&gt;1hrBFEnc <b>DENEXFAIL </b></div><table class=\"hapiPropertyTable\"><tbody><tr><td>Identifier</td><td>0320cf57e9b83d932334af8e2d508abe</td></tr><tr><td>Date of birth</td><td><span>18 September 1985</span></td></tr></tbody></table></div>"
      },
      "extension": [ {
        "url": "http://hl7.org/fhir/us/core/StructureDefinition/us-core-race",
        "extension": [ {
          "url": "ombCategory",
          "valueCoding": {
            "system": "urn:oid:2.16.840.1.113883.6.238",
            "code": "1002-5",
            "display": "American Indian or Alaska Native",
            "userSelected": true
          }
        }, {
          "url": "text",
          "valueString": "American Indian or Alaska Native"
        } ]
      }, {
        "url": "http://hl7.org/fhir/us/core/StructureDefinition/us-core-ethnicity",
        "extension": [ {
          "url": "ombCategory",
          "valueCoding": {
            "system": "urn:oid:2.16.840.1.113883.6.238",
            "code": "2135-2",
            "display": "Hispanic or Latino",
            "userSelected": true
          }
        }, {
          "url": "text",
          "valueString": "Hispanic or Latino"
        } ]
      } ],
      "identifier": [ {
        "type": {
          "coding": [ {
            "system": "http://terminology.hl7.org/CodeSystem/v2-0203",
            "code": "MR"
          } ]
        },
        "system": "https://bonnie-fhir.healthit.gov/",
        "value": "633c9d030968f8012250fc7e"
      } ],
      "active": true,
      "name": [ {
        "use": "usual",
        "family": "DENEXFail",
        "given": [ "CMOdurObs_ED<1hrObs>1hrBFEnc" ]
      } ],
      "gender": "female",
      "birthDate": "1986-09-18"
    },
    "request": {
      "method": "PUT",
      "url": "Patient/5704cb0f-a88b-4df3-b3d3-5438d3de4f6d"
    }
  }, {
    "fullUrl": "https://madie.cms.gov/Condition/012a4cf8-1d1e-493f-a393-2ffaa3d4973b",
    "resource": {
      "resourceType": "Condition",
      "id": "012a4cf8-1d1e-493f-a393-2ffaa3d4973b",
      "meta": {
        "profile": [ "http://hl7.org/fhir/us/qicore/StructureDefinition/qicore-condition-encounter-diagnosis" ]
      },
      "clinicalStatus": {
        "coding": [ {
          "system": "http://terminology.hl7.org/CodeSystem/condition-clinical",
          "code": "inactive",
          "display": "InActive"
        } ]
      },
      "verificationStatus": {
        "coding": [ {
          "system": "http://terminology.hl7.org/CodeSystem/condition-ver-status",
          "code": "confirmed",
          "display": "Confirmed"
        } ]
      },
      "category": [ {
        "coding": [ {
          "system": "http://terminology.hl7.org/CodeSystem/condition-category",
          "code": "encounter-diagnosis",
          "display": "Encounter Diagnosis"
        } ]
      } ],
      "code": {
        "coding": [ {
          "system": "http://hl7.org/fhir/sid/icd-10-cm",
          "code": "I48.0"
        }, {
          "system": "http://snomed.info/sct",
          "code": "5370000"
        } ]
      },
      "subject": {
        "reference": "Patient/5704cb0f-a88b-4df3-b3d3-5438d3de4f6d"
      },
      "onsetDateTime": "2026-02-11T08:00:00.000Z",
      "abatementDateTime": "2026-02-11T08:15:00.000Z"
    },
    "request": {
      "method": "PUT",
      "url": "Condition/012a4cf8-1d1e-493f-a393-2ffaa3d4973b"
    }
  }, {
    "fullUrl": "https://madie.cms.gov/Condition/82f219db-4b68-4a58-acd3-59f7f76a1c86",
    "resource": {
      "resourceType": "Condition",
      "id": "82f219db-4b68-4a58-acd3-59f7f76a1c86",
      "meta": {
        "profile": [ "http://hl7.org/fhir/us/qicore/StructureDefinition/qicore-condition-encounter-diagnosis" ]
      },
      "clinicalStatus": {
        "coding": [ {
          "system": "http://terminology.hl7.org/CodeSystem/condition-clinical",
          "code": "inactive",
          "display": "Inactive"
        } ]
      },
      "verificationStatus": {
        "coding": [ {
          "system": "http://terminology.hl7.org/CodeSystem/condition-ver-status",
          "code": "confirmed",
          "display": "Confirmed"
        } ]
      },
      "category": [ {
        "coding": [ {
          "system": "http://terminology.hl7.org/CodeSystem/condition-category",
          "code": "encounter-diagnosis",
          "display": "Encounter Diagnosis"
        } ]
      } ],
      "code": {
        "coding": [ {
          "system": "http://hl7.org/fhir/sid/icd-10-cm",
          "code": "I48.0"
        }, {
          "system": "http://snomed.info/sct",
          "code": "5370000"
        } ]
      },
      "subject": {
        "reference": "Patient/5704cb0f-a88b-4df3-b3d3-5438d3de4f6d"
      },
      "onsetDateTime": "2026-10-01T09:00:00.000Z",
      "abatementDateTime": "2026-10-12T08:15:00.000Z"
    },
    "request": {
      "method": "PUT",
      "url": "Condition/82f219db-4b68-4a58-acd3-59f7f76a1c86"
    }
  }, {
    "fullUrl": "https://madie.cms.gov/Encounter/baf10995-2c50-4801-a31f-39190a706bba",
    "resource": {
      "resourceType": "Encounter",
      "id": "baf10995-2c50-4801-a31f-39190a706bba",
      "meta": {
        "profile": [ "http://hl7.org/fhir/us/qicore/StructureDefinition/qicore-encounter" ]
      },
      "status": "finished",
      "class": {
        "system": "http://terminology.hl7.org/CodeSystem/v3-ActCode",
        "code": "EMER",
        "display": "emergency"
      },
      "type": [ {
        "coding": [ {
          "system": "http://snomed.info/sct",
          "code": "4525004"
        } ]
      } ],
      "subject": {
        "reference": "Patient/5704cb0f-a88b-4df3-b3d3-5438d3de4f6d"
      },
      "period": {
        "start": "2026-10-01T09:00:00.000Z",
        "end": "2026-10-01T09:15:00.000Z"
      },
      "length": {
        "value": 0,
        "unit": "days"
      }
    },
    "request": {
      "method": "PUT",
      "url": "Encounter/baf10995-2c50-4801-a31f-39190a706bba"
    }
  }, {
    "fullUrl": "https://madie.cms.gov/Encounter/58fcae8f-2951-4a23-91ac-7e7296ae4467",
    "resource": {
      "resourceType": "Encounter",
      "id": "58fcae8f-2951-4a23-91ac-7e7296ae4467",
      "meta": {
        "profile": [ "http://hl7.org/fhir/us/qicore/StructureDefinition/qicore-encounter" ]
      },
      "status": "finished",
      "class": {
        "system": "http://terminology.hl7.org/CodeSystem/v3-ActCode",
        "code": "OBSENC",
        "display": "observation encounter"
      },
      "type": [ {
        "coding": [ {
          "system": "http://snomed.info/sct",
          "code": "448851000124103"
        } ]
      } ],
      "subject": {
        "reference": "Patient/5704cb0f-a88b-4df3-b3d3-5438d3de4f6d"
      },
      "period": {
        "start": "2026-10-01T09:16:00.000Z",
        "end": "2026-10-01T09:30:00.000Z"
      },
      "length": {
        "value": 0,
        "unit": "days"
      }
    },
    "request": {
      "method": "PUT",
      "url": "Encounter/58fcae8f-2951-4a23-91ac-7e7296ae4467"
    }
  }, {
    "fullUrl": "https://madie.cms.gov/Encounter/a870e72c-b3ab-4033-a1b7-7770f4d0c2b1",
    "resource": {
      "resourceType": "Encounter",
      "id": "a870e72c-b3ab-4033-a1b7-7770f4d0c2b1",
      "meta": {
        "profile": [ "http://hl7.org/fhir/us/qicore/StructureDefinition/qicore-encounter" ]
      },
      "status": "finished",
      "class": {
        "system": "http://terminology.hl7.org/CodeSystem/v3-ActCode",
        "code": "IMP",
        "display": "inpatient encounter"
      },
      "type": [ {
        "coding": [ {
          "system": "http://snomed.info/sct",
          "code": "32485007"
        } ]
      } ],
      "subject": {
        "reference": "Patient/5704cb0f-a88b-4df3-b3d3-5438d3de4f6d"
      },
      "period": {
        "start": "2026-10-01T10:31:00.000Z",
        "end": "2026-10-12T08:15:00.000Z"
      },
      "length": {
        "value": 11,
        "unit": "days"
      },
      "reasonReference": [ {
        "reference": "Condition/82f219db-4b68-4a58-acd3-59f7f76a1c86"
      } ]
    },
    "request": {
      "method": "PUT",
      "url": "Encounter/a870e72c-b3ab-4033-a1b7-7770f4d0c2b1"
    }
  }, {
    "fullUrl": "https://madie.cms.gov/ServiceRequest/a9b8c224-b941-484c-be61-9fb50e6ab794",
    "resource": {
      "resourceType": "ServiceRequest",
      "id": "a9b8c224-b941-484c-be61-9fb50e6ab794",
      "meta": {
        "profile": [ "http://hl7.org/fhir/us/qicore/StructureDefinition/qicore-servicerequest" ]
      },
      "status": "active",
      "intent": "order",
      "code": {
        "coding": [ {
          "system": "http://snomed.info/sct",
          "code": "133918004"
        } ]
      },
      "subject": {
        "reference": "Patient/5704cb0f-a88b-4df3-b3d3-5438d3de4f6d"
      },
      "authoredOn": "2026-10-01T09:17:00.000Z"
    },
    "request": {
      "method": "PUT",
      "url": "ServiceRequest/a9b8c224-b941-484c-be61-9fb50e6ab794"
    }
  }, {
    "fullUrl": "https://madie.cms.gov/Coverage/dbd0851e-803b-426f-87a8-755e1ff30efc",
    "resource": {
      "resourceType": "Coverage",
      "id": "dbd0851e-803b-426f-87a8-755e1ff30efc",
      "meta": {
        "profile": [ "http://hl7.org/fhir/us/qicore/StructureDefinition/qicore-coverage" ]
      },
      "status": "active",
      "subscriberId": "523435",
      "beneficiary": {
        "reference": "Patient/5704cb0f-a88b-4df3-b3d3-5438d3de4f6d"
      },
      "relationship": {
        "coding": [ {
          "system": "http://terminology.hl7.org/CodeSystem/subscriber-relationship",
          "code": "self"
        } ]
      },
      "payor": [ {
        "reference": "Organization/f2d220b9-f613-4a24-b460-480ec21f0719"
      } ]
    },
    "request": {
      "method": "PUT",
      "url": "Coverage/dbd0851e-803b-426f-87a8-755e1ff30efc"
    }
  }, {
    "fullUrl": "https://madie.cms.gov/Condition/91089d8d-b4bd-4315-bef1-8db10ceb936d",
    "resource": {
      "resourceType": "Condition",
      "id": "91089d8d-b4bd-4315-bef1-8db10ceb936d",
      "meta": {
        "profile": [ "http://hl7.org/fhir/us/qicore/StructureDefinition/qicore-condition-encounter-diagnosis" ]
      },
      "clinicalStatus": {
        "coding": [ {
          "system": "http://terminology.hl7.org/CodeSystem/condition-clinical",
          "code": "active"
        } ]
      },
      "verificationStatus": {
        "coding": [ {
          "system": "http://terminology.hl7.org/CodeSystem/condition-ver-status",
          "code": "confirmed"
        } ]
      },
      "category": [ {
        "coding": [ {
          "system": "http://terminology.hl7.org/CodeSystem/condition-category",
          "code": "encounter-diagnosis",
          "display": "Encounter Diagnosis"
        } ]
      } ],
      "code": {
        "coding": [ {
          "system": "http://snomed.info/sct",
          "version": "2021-09",
          "code": "111297002",
          "display": "Nonparalytic stroke (disorder)",
          "userSelected": true
        } ]
      },
      "subject": {
        "reference": "Patient/5704cb0f-a88b-4df3-b3d3-5438d3de4f6d"
      },
      "recordedDate": "2026-10-13T08:00:00.000Z"
    },
    "request": {
      "method": "PUT",
      "url": "Condition/91089d8d-b4bd-4315-bef1-8db10ceb936d"
    }
  }, {
    "fullUrl": "https://madie.cms.gov/Claim/08d18311-1fc5-4b41-9e00-150d091ae564",
    "resource": {
      "resourceType": "Claim",
      "id": "08d18311-1fc5-4b41-9e00-150d091ae564",
      "meta": {
        "profile": [ "http://hl7.org/fhir/us/qicore/StructureDefinition/qicore-claim" ]
      },
      "status": "active",
      "type": {
        "coding": [ {
          "system": "http://terminology.hl7.org/CodeSystem/claim-type",
          "code": "institutional"
        } ]
      },
      "use": "claim",
      "patient": {
        "reference": "Patient/5704cb0f-a88b-4df3-b3d3-5438d3de4f6d"
      },
      "created": "2026-12-01",
      "provider": {
        "reference": "Practitioner/practitioner-123456"
      },
      "priority": {
        "coding": [ {
          "system": "http://terminology.hl7.org/CodeSystem/processpriority",
          "code": "normal"
        } ]
      },
      "diagnosis": [ {
        "sequence": 1,
        "diagnosisCodeableConcept": {
          "coding": [ {
            "system": "http://hl7.org/fhir/sid/icd-10-cm",
            "code": "I63.00"
          } ]
        },
        "type": [ {
          "coding": [ {
            "system": "http://terminology.hl7.org/CodeSystem/ex-diagnosistype",
            "code": "principal"
          } ]
        } ]
      } ],
      "insurance": [ {
        "sequence": 1,
        "focal": true,
        "coverage": {
          "reference": "Coverage/5fa041661c76ba66d9959367"
        }
      } ],
      "item": [ {
        "sequence": 1,
        "diagnosisSequence": [ 1 ],
        "productOrService": {
          "coding": [ {
            "system": "http://terminology.hl7.org/CodeSystem/ex-USCLS",
            "code": "99555"
          } ]
        },
        "encounter": [ {
          "reference": "Encounter/a870e72c-b3ab-4033-a1b7-7770f4d0c2b1"
        } ]
      } ]
    },
    "request": {
      "method": "PUT",
      "url": "Claim/08d18311-1fc5-4b41-9e00-150d091ae564"
    }
  }, {
    "fullUrl": "https://madie.cms.gov/Organization/f2d220b9-f613-4a24-b460-480ec21f0719",
    "resource": {
      "resourceType": "Organization",
      "id": "f2d220b9-f613-4a24-b460-480ec21f0719",
      "meta": {
        "profile": [ "http://hl7.org/fhir/us/qicore/StructureDefinition/qicore-organization" ]
      },
      "identifier": [ {
        "use": "temp",
        "system": "urn:oid:2.16.840.1.113883.4.4",
        "value": "21-3259825"
      } ],
      "active": true,
      "type": [ {
        "coding": [ {
          "system": "http://terminology.hl7.org/CodeSystem/organization-type",
          "code": "pay",
          "display": "Payer"
        } ]
      } ],
      "name": "Blue Cross Blue Shield of Texas",
      "telecom": [ {
        "system": "phone",
        "value": "(+1) 972-766-6900"
      } ],
      "address": [ {
        "use": "billing",
        "type": "postal",
        "line": [ "P.O. Box 660044" ],
        "city": "Dallas",
        "state": "TX",
        "postalCode": "75266-0044",
        "country": "USA"
      } ]
    },
    "request": {
      "method": "PUT",
      "url": "Organization/f2d220b9-f613-4a24-b460-480ec21f0719"
    }
  }, {
    "fullUrl": "https://madie.cms.gov/MeasureReport/9503f994-5f8a-4e33-a1b6-70df01ef1281",
    "resource": {
      "resourceType": "MeasureReport",
      "id": "9503f994-5f8a-4e33-a1b6-70df01ef1281",
      "meta": {
        "profile": [ "http://hl7.org/fhir/us/cqfmeasures/StructureDefinition/test-case-cqfm" ]
      },
      "contained": [ {
        "resourceType": "Parameters",
        "id": "300ebbc5-3f79-45cf-a2b0-a408d74ec1bd-parameters",
        "parameter": [ {
          "name": "subject",
          "valueString": "5704cb0f-a88b-4df3-b3d3-5438d3de4f6d"
        } ]
      } ],
      "extension": [ {
        "url": "http://hl7.org/fhir/StructureDefinition/cqf-inputParameters",
        "valueReference": {
          "reference": "#300ebbc5-3f79-45cf-a2b0-a408d74ec1bd-parameters"
        }
      }, {
        "url": "http://hl7.org/fhir/us/cqfmeasures/StructureDefinition/cqfm-testCaseDescription",
        "valueMarkdown": "Patient receives CMO during Observation. ED ends 1 min before Obs start and Obs ends 61 min before inpatient encounter start. Testing HospitalizationWithObservation function.\n"
      } ],
      "modifierExtension": [ {
        "url": "http://hl7.org/fhir/us/cqfmeasures/StructureDefinition/cqfm-isTestCase",
        "valueBoolean": true
      } ],
      "status": "complete",
      "type": "individual",
      "measure": "https://madie.cms.gov/Measure/CMS71FHIRSTKAnticoagAFFlutter",
      "period": {
        "start": "2026-01-01",
        "end": "2026-12-31"
      },
      "group": [ {
        "id": "Group_1",
        "population": [ {
          "id": "InitialPopulation_1",
          "code": {
            "coding": [ {
              "system": "http://terminology.hl7.org/CodeSystem/measure-population",
              "code": "initial-population",
              "display": "Initial Population"
            } ]
          },
          "count": 1
        }, {
          "id": "Denominator_1",
          "code": {
            "coding": [ {
              "system": "http://terminology.hl7.org/CodeSystem/measure-population",
              "code": "denominator",
              "display": "Denominator"
            } ]
          },
          "count": 1
        }, {
          "id": "DenominatorExclusion_1",
          "code": {
            "coding": [ {
              "system": "http://terminology.hl7.org/CodeSystem/measure-population",
              "code": "denominator-exclusion",
              "display": "Denominator Exclusion"
            } ]
          },
          "count": 0
        }, {
          "id": "Numerator_1",
          "code": {
            "coding": [ {
              "system": "http://terminology.hl7.org/CodeSystem/measure-population",
              "code": "numerator",
              "display": "Numerator"
            } ]
          },
          "count": 0
        }, {
          "id": "DenominatorException_1",
          "code": {
            "coding": [ {
              "system": "http://terminology.hl7.org/CodeSystem/measure-population",
              "code": "denominator-exception",
              "display": "Denominator Exception"
            } ]
          },
          "count": 0
        } ],
        "measureScore": {
          "value": 0.0
        }
      } ],
      "evaluatedResource": [ {
        "reference": "Patient/5704cb0f-a88b-4df3-b3d3-5438d3de4f6d"
      }, {
        "reference": "Condition/012a4cf8-1d1e-493f-a393-2ffaa3d4973b"
      }, {
        "reference": "Condition/82f219db-4b68-4a58-acd3-59f7f76a1c86"
      }, {
        "reference": "Encounter/baf10995-2c50-4801-a31f-39190a706bba"
      }, {
        "reference": "Encounter/58fcae8f-2951-4a23-91ac-7e7296ae4467"
      }, {
        "reference": "Encounter/a870e72c-b3ab-4033-a1b7-7770f4d0c2b1"
      }, {
        "reference": "ServiceRequest/a9b8c224-b941-484c-be61-9fb50e6ab794"
      }, {
        "reference": "Coverage/dbd0851e-803b-426f-87a8-755e1ff30efc"
      }, {
        "reference": "Condition/91089d8d-b4bd-4315-bef1-8db10ceb936d"
      }, {
        "reference": "Claim/08d18311-1fc5-4b41-9e00-150d091ae564"
      }, {
        "reference": "Organization/f2d220b9-f613-4a24-b460-480ec21f0719"
      } ]
    },
    "request": {
      "method": "PUT",
      "url": "MeasureReport/9503f994-5f8a-4e33-a1b6-70df01ef1281"
    }
  } ]
}