{
  "resourceType": "Bundle",
  "id": "633c9d020968f8012250fc6a",
  "type": "transaction",
  "entry": [ {
    "fullUrl": "https://madie.cms.gov/Patient/f916d085-e8dc-4e8d-97ae-07952c1062b9",
    "resource": {
      "resourceType": "Patient",
      "id": "f916d085-e8dc-4e8d-97ae-07952c1062b9",
      "meta": {
        "profile": [ "http://hl7.org/fhir/us/qicore/StructureDefinition/qicore-patient" ]
      },
      "text": {
        "status": "generated",
        "div": "<div xmlns=\"http://www.w3.org/1999/xhtml\"><div class=\"hapiHeaderText\">DischargeACF <b>DENEXPASS </b></div><table class=\"hapiPropertyTable\"><tbody><tr><td>Identifier</td><td>34c56525ad7011dea3dfe275e76167da</td></tr><tr><td>Date of birth</td><td><span>31 July 1969</span></td></tr></tbody></table></div>"
      },
      "extension": [ {
        "url": "http://hl7.org/fhir/us/core/StructureDefinition/us-core-race",
        "extension": [ {
          "url": "ombCategory",
          "valueCoding": {
            "system": "urn:oid:2.16.840.1.113883.6.238",
            "code": "1002-5",
            "display": "American Indian or Alaska Native",
            "userSelected": true
          }
        }, {
          "url": "text",
          "valueString": "American Indian or Alaska Native"
        } ]
      }, {
        "url": "http://hl7.org/fhir/us/core/StructureDefinition/us-core-ethnicity",
        "extension": [ {
          "url": "ombCategory",
          "valueCoding": {
            "system": "urn:oid:2.16.840.1.113883.6.238",
            "code": "2135-2",
            "display": "Hispanic or Latino",
            "userSelected": true
          }
        }, {
          "url": "text",
          "valueString": "Hispanic or Latino"
        } ]
      } ],
      "identifier": [ {
        "type": {
          "coding": [ {
            "system": "http://terminology.hl7.org/CodeSystem/v2-0203",
            "code": "MR"
          } ]
        },
        "system": "https://bonnie-fhir.healthit.gov/",
        "value": "633c9d020968f8012250fc6a"
      } ],
      "active": true,
      "name": [ {
        "use": "usual",
        "family": "DENEXPass",
        "given": [ "DischargeACF" ]
      } ],
      "gender": "male",
      "birthDate": "1970-07-31"
    },
    "request": {
      "method": "PUT",
      "url": "Patient/f916d085-e8dc-4e8d-97ae-07952c1062b9"
    }
  }, {
    "fullUrl": "https://madie.cms.gov/Encounter/aa37943c-22fc-4530-9c73-c40a2f9bc1ba",
    "resource": {
      "resourceType": "Encounter",
      "id": "aa37943c-22fc-4530-9c73-c40a2f9bc1ba",
      "meta": {
        "profile": [ "http://hl7.org/fhir/us/qicore/StructureDefinition/qicore-encounter" ]
      },
      "status": "finished",
      "class": {
        "system": "http://terminology.hl7.org/CodeSystem/v3-ActCode",
        "code": "IMP",
        "display": "inpatient encounter"
      },
      "type": [ {
        "coding": [ {
          "system": "http://snomed.info/sct",
          "code": "32485007"
        } ]
      } ],
      "subject": {
        "reference": "Patient/f916d085-e8dc-4e8d-97ae-07952c1062b9"
      },
      "period": {
        "start": "2026-11-20T08:00:00.000Z",
        "end": "2026-11-24T08:15:00.000Z"
      },
      "length": {
        "value": 4,
        "unit": "days"
      },
      "hospitalization": {
        "dischargeDisposition": {
          "coding": [ {
            "system": "http://snomed.info/sct",
            "code": "306701001",
            "display": "Discharge To Acute Care Facility"
          } ]
        }
      }
    },
    "request": {
      "method": "PUT",
      "url": "Encounter/aa37943c-22fc-4530-9c73-c40a2f9bc1ba"
    }
  }, {
    "fullUrl": "https://madie.cms.gov/Coverage/6bebdd5c-2ccb-4f5c-b500-0363855492e6",
    "resource": {
      "resourceType": "Coverage",
      "id": "6bebdd5c-2ccb-4f5c-b500-0363855492e6",
      "status": "active",
      "beneficiary": {
        "reference": "Patient/f916d085-e8dc-4e8d-97ae-07952c1062b9"
      },
      "period": {
        "start": "1970-07-31T08:00:00.000Z"
      },
      "payor": [ {
        "reference": "Organization/b9ae52aa-c2da-47dc-8c3b-5bfe5419fdb0"
      } ]
    },
    "request": {
      "method": "PUT",
      "url": "Coverage/6bebdd5c-2ccb-4f5c-b500-0363855492e6"
    }
  }, {
    "fullUrl": "https://madie.cms.gov/Claim/d67623ba-ebbb-4863-984f-08edb0ce4d0a",
    "resource": {
      "resourceType": "Claim",
      "id": "d67623ba-ebbb-4863-984f-08edb0ce4d0a",
      "meta": {
        "profile": [ "http://hl7.org/fhir/us/qicore/StructureDefinition/qicore-claim" ]
      },
      "status": "active",
      "type": {
        "coding": [ {
          "system": "http://terminology.hl7.org/CodeSystem/claim-type",
          "code": "institutional"
        } ]
      },
      "use": "claim",
      "patient": {
        "reference": "Patient/f916d085-e8dc-4e8d-97ae-07952c1062b9"
      },
      "created": "2026-12-01",
      "provider": {
        "reference": "Practitioner/55663f2b-8394-4868-8ec1-db5feac783d4"
      },
      "priority": {
        "coding": [ {
          "system": "http://terminology.hl7.org/CodeSystem/processpriority",
          "code": "normal"
        } ]
      },
      "diagnosis": [ {
        "sequence": 1,
        "diagnosisCodeableConcept": {
          "coding": [ {
            "system": "http://hl7.org/fhir/sid/icd-10-cm",
            "code": "I63.00"
          } ]
        },
        "type": [ {
          "coding": [ {
            "system": "http://terminology.hl7.org/CodeSystem/ex-diagnosistype",
            "code": "principal"
          } ]
        } ]
      } ],
      "insurance": [ {
        "sequence": 1,
        "focal": true,
        "coverage": {
          "reference": "Coverage/5fa041661c76ba66d9959367"
        }
      } ],
      "item": [ {
        "sequence": 1,
        "diagnosisSequence": [ 1 ],
        "productOrService": {
          "coding": [ {
            "system": "http://terminology.hl7.org/CodeSystem/ex-USCLS",
            "code": "99555"
          } ]
        },
        "encounter": [ {
          "reference": "Encounter/aa37943c-22fc-4530-9c73-c40a2f9bc1ba"
        } ]
      } ]
    },
    "request": {
      "method": "PUT",
      "url": "Claim/d67623ba-ebbb-4863-984f-08edb0ce4d0a"
    }
  }, {
    "fullUrl": "https://madie.cms.gov/Procedure/9065040f-6fd5-44bb-9567-610c8f1ecca3",
    "resource": {
      "resourceType": "Procedure",
      "id": "9065040f-6fd5-44bb-9567-610c8f1ecca3",
      "meta": {
        "profile": [ "http://hl7.org/fhir/us/qicore/StructureDefinition/qicore-procedure" ]
      },
      "extension": [ {
        "url": "http://hl7.org/fhir/us/qicore/StructureDefinition/qicore-recorded",
        "valueDateTime": "2026-11-19T13:35:00.000Z"
      } ],
      "status": "completed",
      "code": {
        "coding": [ {
          "system": "http://www.cms.gov/Medicare/Coding/ICD10",
          "code": "02560ZZ"
        }, {
          "system": "http://snomed.info/sct",
          "code": "175095005"
        } ]
      },
      "subject": {
        "reference": "Patient/f916d085-e8dc-4e8d-97ae-07952c1062b9"
      },
      "performedPeriod": {
        "start": "2026-11-19T08:00:00.000Z",
        "end": "2026-11-20T08:15:00.000Z"
      }
    },
    "request": {
      "method": "PUT",
      "url": "Procedure/9065040f-6fd5-44bb-9567-610c8f1ecca3"
    }
  }, {
    "fullUrl": "https://madie.cms.gov/Condition/f893863f-fd54-4afe-a453-1769057a7575",
    "resource": {
      "resourceType": "Condition",
      "id": "f893863f-fd54-4afe-a453-1769057a7575",
      "meta": {
        "profile": [ "http://hl7.org/fhir/us/qicore/StructureDefinition/qicore-condition-encounter-diagnosis" ]
      },
      "clinicalStatus": {
        "coding": [ {
          "system": "http://terminology.hl7.org/CodeSystem/condition-clinical",
          "code": "active"
        } ]
      },
      "verificationStatus": {
        "coding": [ {
          "system": "http://terminology.hl7.org/CodeSystem/condition-ver-status",
          "code": "confirmed"
        } ]
      },
      "category": [ {
        "coding": [ {
          "system": "http://terminology.hl7.org/CodeSystem/condition-category",
          "code": "encounter-diagnosis",
          "display": "Encounter Diagnosis"
        } ]
      } ],
      "code": {
        "coding": [ {
          "system": "http://snomed.info/sct",
          "version": "2021-09",
          "code": "111297002",
          "display": "Nonparalytic stroke (disorder)",
          "userSelected": true
        } ]
      },
      "subject": {
        "reference": "Patient/f916d085-e8dc-4e8d-97ae-07952c1062b9"
      },
      "recordedDate": "2026-10-13T08:00:00.000Z"
    },
    "request": {
      "method": "PUT",
      "url": "Condition/f893863f-fd54-4afe-a453-1769057a7575"
    }
  }, {
    "fullUrl": "https://madie.cms.gov/Organization/b9ae52aa-c2da-47dc-8c3b-5bfe5419fdb0",
    "resource": {
      "resourceType": "Organization",
      "id": "b9ae52aa-c2da-47dc-8c3b-5bfe5419fdb0",
      "meta": {
        "profile": [ "http://hl7.org/fhir/us/qicore/StructureDefinition/qicore-organization" ]
      },
      "identifier": [ {
        "use": "temp",
        "system": "urn:oid:2.16.840.1.113883.4.4",
        "value": "21-3259825"
      } ],
      "active": true,
      "type": [ {
        "coding": [ {
          "system": "http://terminology.hl7.org/CodeSystem/organization-type",
          "code": "pay",
          "display": "Payer"
        } ]
      } ],
      "name": "Blue Cross Blue Shield of Texas",
      "telecom": [ {
        "system": "phone",
        "value": "(+1) 972-766-6900"
      } ],
      "address": [ {
        "use": "billing",
        "type": "postal",
        "line": [ "P.O. Box 660044" ],
        "city": "Dallas",
        "state": "TX",
        "postalCode": "75266-0044",
        "country": "USA"
      } ]
    },
    "request": {
      "method": "PUT",
      "url": "Organization/b9ae52aa-c2da-47dc-8c3b-5bfe5419fdb0"
    }
  }, {
    "fullUrl": "https://madie.cms.gov/Practitioner/55663f2b-8394-4868-8ec1-db5feac783d4",
    "resource": {
      "resourceType": "Practitioner",
      "id": "55663f2b-8394-4868-8ec1-db5feac783d4",
      "meta": {
        "profile": [ "http://hl7.org/fhir/us/qicore/StructureDefinition/qicore-practitioner" ]
      },
      "identifier": [ {
        "system": "http://hl7.org/fhir/sid/us-npi",
        "value": "9999999896"
      } ],
      "name": [ {
        "family": "Evil",
        "prefix": [ "Dr" ]
      } ]
    },
    "request": {
      "method": "PUT",
      "url": "Practitioner/55663f2b-8394-4868-8ec1-db5feac783d4"
    }
  }, {
    "fullUrl": "https://madie.cms.gov/MeasureReport/227cc0bf-ecd6-41cc-a2bb-7427de2787d3",
    "resource": {
      "resourceType": "MeasureReport",
      "id": "227cc0bf-ecd6-41cc-a2bb-7427de2787d3",
      "meta": {
        "profile": [ "http://hl7.org/fhir/us/cqfmeasures/StructureDefinition/test-case-cqfm" ]
      },
      "contained": [ {
        "resourceType": "Parameters",
        "id": "f5cdcec2-765f-48ec-a939-3a13229c307a-parameters",
        "parameter": [ {
          "name": "subject",
          "valueString": "f916d085-e8dc-4e8d-97ae-07952c1062b9"
        } ]
      } ],
      "extension": [ {
        "url": "http://hl7.org/fhir/StructureDefinition/cqf-inputParameters",
        "valueReference": {
          "reference": "#f5cdcec2-765f-48ec-a939-3a13229c307a-parameters"
        }
      }, {
        "url": "http://hl7.org/fhir/us/cqfmeasures/StructureDefinition/cqfm-testCaseDescription",
        "valueMarkdown": "Patient is discharged to acute care facility.(ACFA)\n"
      } ],
      "modifierExtension": [ {
        "url": "http://hl7.org/fhir/us/cqfmeasures/StructureDefinition/cqfm-isTestCase",
        "valueBoolean": true
      } ],
      "status": "complete",
      "type": "individual",
      "measure": "https://madie.cms.gov/Measure/CMS71FHIRSTKAnticoagAFFlutter",
      "period": {
        "start": "2026-01-01",
        "end": "2026-12-31"
      },
      "group": [ {
        "id": "Group_1",
        "population": [ {
          "id": "InitialPopulation_1",
          "code": {
            "coding": [ {
              "system": "http://terminology.hl7.org/CodeSystem/measure-population",
              "code": "initial-population",
              "display": "Initial Population"
            } ]
          },
          "count": 1
        }, {
          "id": "Denominator_1",
          "code": {
            "coding": [ {
              "system": "http://terminology.hl7.org/CodeSystem/measure-population",
              "code": "denominator",
              "display": "Denominator"
            } ]
          },
          "count": 1
        }, {
          "id": "DenominatorExclusion_1",
          "code": {
            "coding": [ {
              "system": "http://terminology.hl7.org/CodeSystem/measure-population",
              "code": "denominator-exclusion",
              "display": "Denominator Exclusion"
            } ]
          },
          "count": 1
        }, {
          "id": "Numerator_1",
          "code": {
            "coding": [ {
              "system": "http://terminology.hl7.org/CodeSystem/measure-population",
              "code": "numerator",
              "display": "Numerator"
            } ]
          },
          "count": 0
        }, {
          "id": "DenominatorException_1",
          "code": {
            "coding": [ {
              "system": "http://terminology.hl7.org/CodeSystem/measure-population",
              "code": "denominator-exception",
              "display": "Denominator Exception"
            } ]
          },
          "count": 0
        } ],
        "measureScore": {
          "value": 0.0
        }
      } ],
      "evaluatedResource": [ {
        "reference": "Patient/f916d085-e8dc-4e8d-97ae-07952c1062b9"
      }, {
        "reference": "Encounter/aa37943c-22fc-4530-9c73-c40a2f9bc1ba"
      }, {
        "reference": "Coverage/6bebdd5c-2ccb-4f5c-b500-0363855492e6"
      }, {
        "reference": "Claim/d67623ba-ebbb-4863-984f-08edb0ce4d0a"
      }, {
        "reference": "Procedure/9065040f-6fd5-44bb-9567-610c8f1ecca3"
      }, {
        "reference": "Condition/f893863f-fd54-4afe-a453-1769057a7575"
      }, {
        "reference": "Organization/b9ae52aa-c2da-47dc-8c3b-5bfe5419fdb0"
      }, {
        "reference": "Practitioner/55663f2b-8394-4868-8ec1-db5feac783d4"
      } ]
    },
    "request": {
      "method": "PUT",
      "url": "MeasureReport/227cc0bf-ecd6-41cc-a2bb-7427de2787d3"
    }
  } ]
}