{
  "resourceType": "Bundle",
  "id": "633c9d040968f8012250fca1",
  "type": "transaction",
  "entry": [ {
    "fullUrl": "https://madie.cms.gov/Patient/60216757-e9a7-4e33-90f4-d0b1212bdea9",
    "resource": {
      "resourceType": "Patient",
      "id": "60216757-e9a7-4e33-90f4-d0b1212bdea9",
      "meta": {
        "profile": [ "http://hl7.org/fhir/us/qicore/StructureDefinition/qicore-patient" ]
      },
      "text": {
        "status": "generated",
        "div": "<div xmlns=\"http://www.w3.org/1999/xhtml\"><div class=\"hapiHeaderText\">DxAfibAtEncEndTimeRelePer <b>DENOMPASS </b></div><table class=\"hapiPropertyTable\"><tbody><tr><td>Identifier</td><td>5a408ee0f4b76e6dba49aa216933f4fd3c68886efc9f6296ba7db457bf6444a8</td></tr><tr><td>Date of birth</td><td><span>01 December 1960</span></td></tr></tbody></table></div>"
      },
      "extension": [ {
        "url": "http://hl7.org/fhir/us/core/StructureDefinition/us-core-race",
        "extension": [ {
          "url": "ombCategory",
          "valueCoding": {
            "system": "urn:oid:2.16.840.1.113883.6.238",
            "code": "1002-5",
            "display": "American Indian or Alaska Native",
            "userSelected": true
          }
        }, {
          "url": "text",
          "valueString": "American Indian or Alaska Native"
        } ]
      }, {
        "url": "http://hl7.org/fhir/us/core/StructureDefinition/us-core-ethnicity",
        "extension": [ {
          "url": "ombCategory",
          "valueCoding": {
            "system": "urn:oid:2.16.840.1.113883.6.238",
            "code": "2135-2",
            "display": "Hispanic or Latino",
            "userSelected": true
          }
        }, {
          "url": "text",
          "valueString": "Hispanic or Latino"
        } ]
      } ],
      "identifier": [ {
        "type": {
          "coding": [ {
            "system": "http://terminology.hl7.org/CodeSystem/v2-0203",
            "code": "MR"
          } ]
        },
        "system": "https://bonnie-fhir.healthit.gov/",
        "value": "633c9d040968f8012250fca1"
      } ],
      "active": true,
      "name": [ {
        "use": "usual",
        "family": "DENOMPass",
        "given": [ "DxAfibAtEncEndTimeRelePer" ]
      } ],
      "gender": "male",
      "birthDate": "1961-12-01"
    },
    "request": {
      "method": "PUT",
      "url": "Patient/60216757-e9a7-4e33-90f4-d0b1212bdea9"
    }
  }, {
    "fullUrl": "https://madie.cms.gov/Condition/ca066c86-716e-4f7c-bdde-9791fbb2f69f",
    "resource": {
      "resourceType": "Condition",
      "id": "ca066c86-716e-4f7c-bdde-9791fbb2f69f",
      "meta": {
        "profile": [ "http://hl7.org/fhir/us/qicore/StructureDefinition/qicore-condition-problems-health-concerns" ]
      },
      "clinicalStatus": {
        "coding": [ {
          "system": "http://terminology.hl7.org/CodeSystem/condition-clinical",
          "code": "inactive"
        } ]
      },
      "verificationStatus": {
        "coding": [ {
          "system": "http://terminology.hl7.org/CodeSystem/condition-ver-status",
          "code": "confirmed"
        } ]
      },
      "category": [ {
        "coding": [ {
          "system": "http://terminology.hl7.org/CodeSystem/condition-category",
          "code": "problem-list-item"
        } ]
      } ],
      "code": {
        "coding": [ {
          "system": "http://snomed.info/sct",
          "code": "195080001"
        }, {
          "system": "http://hl7.org/fhir/sid/icd-9-cm",
          "code": "427.31"
        }, {
          "system": "http://hl7.org/fhir/sid/icd-10-cm",
          "code": "I48.0"
        } ]
      },
      "subject": {
        "reference": "Patient/60216757-e9a7-4e33-90f4-d0b1212bdea9"
      },
      "onsetDateTime": "2026-02-10T08:15:00.000Z",
      "abatementDateTime": "2026-02-10T09:15:00.000Z"
    },
    "request": {
      "method": "PUT",
      "url": "Condition/ca066c86-716e-4f7c-bdde-9791fbb2f69f"
    }
  }, {
    "fullUrl": "https://madie.cms.gov/Encounter/0226d5ee-9e8f-4f4b-a34b-254e6918c554",
    "resource": {
      "resourceType": "Encounter",
      "id": "0226d5ee-9e8f-4f4b-a34b-254e6918c554",
      "meta": {
        "profile": [ "http://hl7.org/fhir/us/qicore/StructureDefinition/qicore-encounter" ]
      },
      "status": "finished",
      "class": {
        "system": "http://terminology.hl7.org/CodeSystem/v3-ActCode",
        "code": "IMP",
        "display": "inpatient encounter"
      },
      "type": [ {
        "coding": [ {
          "system": "http://snomed.info/sct",
          "code": "32485007"
        } ]
      } ],
      "subject": {
        "reference": "Patient/60216757-e9a7-4e33-90f4-d0b1212bdea9"
      },
      "period": {
        "start": "2026-02-08T08:00:00.000Z",
        "end": "2026-02-10T08:15:00.000Z"
      },
      "length": {
        "value": 2,
        "unit": "days"
      },
      "reasonReference": [ {
        "reference": "Condition/ca066c86-716e-4f7c-bdde-9791fbb2f69f"
      } ]
    },
    "request": {
      "method": "PUT",
      "url": "Encounter/0226d5ee-9e8f-4f4b-a34b-254e6918c554"
    }
  }, {
    "fullUrl": "https://madie.cms.gov/Claim/35db0205-4439-428b-badb-5d5cefde087c",
    "resource": {
      "resourceType": "Claim",
      "id": "35db0205-4439-428b-badb-5d5cefde087c",
      "meta": {
        "profile": [ "http://hl7.org/fhir/us/qicore/StructureDefinition/qicore-claim" ]
      },
      "status": "active",
      "type": {
        "coding": [ {
          "system": "http://terminology.hl7.org/CodeSystem/claim-type",
          "code": "institutional"
        } ]
      },
      "use": "claim",
      "patient": {
        "reference": "Patient/60216757-e9a7-4e33-90f4-d0b1212bdea9"
      },
      "created": "2026-12-01",
      "provider": {
        "reference": "Practitioner/4cc8f755-55df-482a-9a57-e69b3404176c"
      },
      "priority": {
        "coding": [ {
          "system": "http://terminology.hl7.org/CodeSystem/processpriority",
          "code": "normal"
        } ]
      },
      "diagnosis": [ {
        "sequence": 1,
        "diagnosisCodeableConcept": {
          "coding": [ {
            "system": "http://hl7.org/fhir/sid/icd-10-cm",
            "code": "I63.00"
          } ]
        },
        "type": [ {
          "coding": [ {
            "system": "http://terminology.hl7.org/CodeSystem/ex-diagnosistype",
            "code": "principal"
          } ]
        } ]
      } ],
      "insurance": [ {
        "sequence": 1,
        "focal": true,
        "coverage": {
          "reference": "Coverage/5fa041661c76ba66d9959367"
        }
      } ],
      "item": [ {
        "sequence": 1,
        "diagnosisSequence": [ 1 ],
        "productOrService": {
          "coding": [ {
            "system": "http://terminology.hl7.org/CodeSystem/ex-USCLS",
            "code": "99555"
          } ]
        },
        "encounter": [ {
          "reference": "Encounter/0226d5ee-9e8f-4f4b-a34b-254e6918c554"
        } ]
      } ]
    },
    "request": {
      "method": "PUT",
      "url": "Claim/35db0205-4439-428b-badb-5d5cefde087c"
    }
  }, {
    "fullUrl": "https://madie.cms.gov/Coverage/cbed33ba-ff2e-4e43-8d66-c7f8ffeb39d9",
    "resource": {
      "resourceType": "Coverage",
      "id": "cbed33ba-ff2e-4e43-8d66-c7f8ffeb39d9",
      "meta": {
        "profile": [ "http://hl7.org/fhir/us/qicore/StructureDefinition/qicore-coverage" ]
      },
      "status": "active",
      "subscriberId": "523435",
      "beneficiary": {
        "reference": "Patient/60216757-e9a7-4e33-90f4-d0b1212bdea9"
      },
      "relationship": {
        "coding": [ {
          "system": "http://terminology.hl7.org/CodeSystem/subscriber-relationship",
          "code": "self"
        } ]
      },
      "payor": [ {
        "reference": "Organization/b347d6dc-01fb-4d86-9613-76e1a285e911"
      } ]
    },
    "request": {
      "method": "PUT",
      "url": "Coverage/cbed33ba-ff2e-4e43-8d66-c7f8ffeb39d9"
    }
  }, {
    "fullUrl": "https://madie.cms.gov/Condition/abd1f8a1-d4fb-4eea-8cb4-85e31abda87b",
    "resource": {
      "resourceType": "Condition",
      "id": "abd1f8a1-d4fb-4eea-8cb4-85e31abda87b",
      "meta": {
        "profile": [ "http://hl7.org/fhir/us/qicore/StructureDefinition/qicore-condition-encounter-diagnosis" ]
      },
      "clinicalStatus": {
        "coding": [ {
          "system": "http://terminology.hl7.org/CodeSystem/condition-clinical",
          "code": "active"
        } ]
      },
      "verificationStatus": {
        "coding": [ {
          "system": "http://terminology.hl7.org/CodeSystem/condition-ver-status",
          "code": "confirmed"
        } ]
      },
      "category": [ {
        "coding": [ {
          "system": "http://terminology.hl7.org/CodeSystem/condition-category",
          "code": "encounter-diagnosis",
          "display": "Encounter Diagnosis"
        } ]
      } ],
      "code": {
        "coding": [ {
          "system": "http://snomed.info/sct",
          "version": "2021-09",
          "code": "111297002",
          "display": "Nonparalytic stroke (disorder)",
          "userSelected": true
        } ]
      },
      "subject": {
        "reference": "Patient/60216757-e9a7-4e33-90f4-d0b1212bdea9"
      },
      "recordedDate": "2026-10-13T08:00:00.000Z"
    },
    "request": {
      "method": "PUT",
      "url": "Condition/abd1f8a1-d4fb-4eea-8cb4-85e31abda87b"
    }
  }, {
    "fullUrl": "https://madie.cms.gov/Organization/b347d6dc-01fb-4d86-9613-76e1a285e911",
    "resource": {
      "resourceType": "Organization",
      "id": "b347d6dc-01fb-4d86-9613-76e1a285e911",
      "meta": {
        "profile": [ "http://hl7.org/fhir/us/qicore/StructureDefinition/qicore-organization" ]
      },
      "identifier": [ {
        "use": "temp",
        "system": "urn:oid:2.16.840.1.113883.4.4",
        "value": "21-3259825"
      } ],
      "active": true,
      "type": [ {
        "coding": [ {
          "system": "http://terminology.hl7.org/CodeSystem/organization-type",
          "code": "pay",
          "display": "Payer"
        } ]
      } ],
      "name": "Blue Cross Blue Shield of Texas",
      "telecom": [ {
        "system": "phone",
        "value": "(+1) 972-766-6900"
      } ],
      "address": [ {
        "use": "billing",
        "type": "postal",
        "line": [ "P.O. Box 660044" ],
        "city": "Dallas",
        "state": "TX",
        "postalCode": "75266-0044",
        "country": "USA"
      } ]
    },
    "request": {
      "method": "PUT",
      "url": "Organization/b347d6dc-01fb-4d86-9613-76e1a285e911"
    }
  }, {
    "fullUrl": "https://madie.cms.gov/Practitioner/4cc8f755-55df-482a-9a57-e69b3404176c",
    "resource": {
      "resourceType": "Practitioner",
      "id": "4cc8f755-55df-482a-9a57-e69b3404176c",
      "meta": {
        "profile": [ "http://hl7.org/fhir/us/qicore/StructureDefinition/qicore-practitioner" ]
      },
      "identifier": [ {
        "system": "http://hl7.org/fhir/sid/us-npi",
        "value": "9999999896"
      } ],
      "name": [ {
        "family": "Evil",
        "prefix": [ "Dr" ]
      } ]
    },
    "request": {
      "method": "PUT",
      "url": "Practitioner/4cc8f755-55df-482a-9a57-e69b3404176c"
    }
  }, {
    "fullUrl": "https://madie.cms.gov/MeasureReport/64d0ac06-14d6-44f3-9a18-20dde52df272",
    "resource": {
      "resourceType": "MeasureReport",
      "id": "64d0ac06-14d6-44f3-9a18-20dde52df272",
      "meta": {
        "profile": [ "http://hl7.org/fhir/us/cqfmeasures/StructureDefinition/test-case-cqfm" ]
      },
      "contained": [ {
        "resourceType": "Parameters",
        "id": "00d3c015-37b0-4ee6-a1d6-6df6a6be370b-parameters",
        "parameter": [ {
          "name": "subject",
          "valueString": "60216757-e9a7-4e33-90f4-d0b1212bdea9"
        } ]
      } ],
      "extension": [ {
        "url": "http://hl7.org/fhir/StructureDefinition/cqf-inputParameters",
        "valueReference": {
          "reference": "#00d3c015-37b0-4ee6-a1d6-6df6a6be370b-parameters"
        }
      }, {
        "url": "http://hl7.org/fhir/us/cqfmeasures/StructureDefinition/cqfm-testCaseDescription",
        "valueMarkdown": "\"Afib as a Diagnosis Datatype, starts at OccurA EndDate time\nEdge case to test timing boundaries of diagnosis. \"\n"
      } ],
      "modifierExtension": [ {
        "url": "http://hl7.org/fhir/us/cqfmeasures/StructureDefinition/cqfm-isTestCase",
        "valueBoolean": true
      } ],
      "status": "complete",
      "type": "individual",
      "measure": "https://madie.cms.gov/Measure/CMS71FHIRSTKAnticoagAFFlutter",
      "period": {
        "start": "2026-01-01",
        "end": "2026-12-31"
      },
      "group": [ {
        "id": "Group_1",
        "population": [ {
          "id": "InitialPopulation_1",
          "code": {
            "coding": [ {
              "system": "http://terminology.hl7.org/CodeSystem/measure-population",
              "code": "initial-population",
              "display": "Initial Population"
            } ]
          },
          "count": 1
        }, {
          "id": "Denominator_1",
          "code": {
            "coding": [ {
              "system": "http://terminology.hl7.org/CodeSystem/measure-population",
              "code": "denominator",
              "display": "Denominator"
            } ]
          },
          "count": 1
        }, {
          "id": "DenominatorExclusion_1",
          "code": {
            "coding": [ {
              "system": "http://terminology.hl7.org/CodeSystem/measure-population",
              "code": "denominator-exclusion",
              "display": "Denominator Exclusion"
            } ]
          },
          "count": 0
        }, {
          "id": "Numerator_1",
          "code": {
            "coding": [ {
              "system": "http://terminology.hl7.org/CodeSystem/measure-population",
              "code": "numerator",
              "display": "Numerator"
            } ]
          },
          "count": 0
        }, {
          "id": "DenominatorException_1",
          "code": {
            "coding": [ {
              "system": "http://terminology.hl7.org/CodeSystem/measure-population",
              "code": "denominator-exception",
              "display": "Denominator Exception"
            } ]
          },
          "count": 0
        } ],
        "measureScore": {
          "value": 0.0
        }
      } ],
      "evaluatedResource": [ {
        "reference": "Patient/60216757-e9a7-4e33-90f4-d0b1212bdea9"
      }, {
        "reference": "Condition/ca066c86-716e-4f7c-bdde-9791fbb2f69f"
      }, {
        "reference": "Encounter/0226d5ee-9e8f-4f4b-a34b-254e6918c554"
      }, {
        "reference": "Claim/35db0205-4439-428b-badb-5d5cefde087c"
      }, {
        "reference": "Coverage/cbed33ba-ff2e-4e43-8d66-c7f8ffeb39d9"
      }, {
        "reference": "Condition/abd1f8a1-d4fb-4eea-8cb4-85e31abda87b"
      }, {
        "reference": "Organization/b347d6dc-01fb-4d86-9613-76e1a285e911"
      }, {
        "reference": "Practitioner/4cc8f755-55df-482a-9a57-e69b3404176c"
      } ]
    },
    "request": {
      "method": "PUT",
      "url": "MeasureReport/64d0ac06-14d6-44f3-9a18-20dde52df272"
    }
  } ]
}