{
  "resourceType": "Bundle",
  "id": "633c9d020968f8012250fc64",
  "type": "transaction",
  "entry": [ {
    "fullUrl": "https://madie.cms.gov/Patient/971fefaa-cfa2-4e36-80d6-319f748d4b5f",
    "resource": {
      "resourceType": "Patient",
      "id": "971fefaa-cfa2-4e36-80d6-319f748d4b5f",
      "meta": {
        "profile": [ "http://hl7.org/fhir/us/qicore/StructureDefinition/qicore-patient" ]
      },
      "text": {
        "status": "generated",
        "div": "<div xmlns=\"http://www.w3.org/1999/xhtml\"><div class=\"hapiHeaderText\">AMA <b>DENEXPASS </b></div><table class=\"hapiPropertyTable\"><tbody><tr><td>Identifier</td><td>b38296647323cdc7f628f752ac1b84d0</td></tr><tr><td>Date of birth</td><td><span>31 July 1969</span></td></tr></tbody></table></div>"
      },
      "extension": [ {
        "url": "http://hl7.org/fhir/us/core/StructureDefinition/us-core-race",
        "extension": [ {
          "url": "ombCategory",
          "valueCoding": {
            "system": "urn:oid:2.16.840.1.113883.6.238",
            "code": "1002-5",
            "display": "American Indian or Alaska Native",
            "userSelected": true
          }
        }, {
          "url": "text",
          "valueString": "American Indian or Alaska Native"
        } ]
      }, {
        "url": "http://hl7.org/fhir/us/core/StructureDefinition/us-core-ethnicity",
        "extension": [ {
          "url": "ombCategory",
          "valueCoding": {
            "system": "urn:oid:2.16.840.1.113883.6.238",
            "code": "2135-2",
            "display": "Hispanic or Latino",
            "userSelected": true
          }
        }, {
          "url": "text",
          "valueString": "Hispanic or Latino"
        } ]
      } ],
      "identifier": [ {
        "type": {
          "coding": [ {
            "system": "http://terminology.hl7.org/CodeSystem/v2-0203",
            "code": "MR"
          } ]
        },
        "system": "https://bonnie-fhir.healthit.gov/",
        "value": "633c9d020968f8012250fc64"
      } ],
      "active": true,
      "name": [ {
        "use": "usual",
        "family": "DENEXPass",
        "given": [ "AMA" ]
      } ],
      "gender": "male",
      "birthDate": "1970-07-31"
    },
    "request": {
      "method": "PUT",
      "url": "Patient/971fefaa-cfa2-4e36-80d6-319f748d4b5f"
    }
  }, {
    "fullUrl": "https://madie.cms.gov/Encounter/45fd9279-fa50-4054-8c7c-aae83fd2672d",
    "resource": {
      "resourceType": "Encounter",
      "id": "45fd9279-fa50-4054-8c7c-aae83fd2672d",
      "meta": {
        "profile": [ "http://hl7.org/fhir/us/qicore/StructureDefinition/qicore-encounter" ]
      },
      "status": "finished",
      "class": {
        "system": "http://terminology.hl7.org/CodeSystem/v3-ActCode",
        "code": "IMP",
        "display": "inpatient encounter"
      },
      "type": [ {
        "coding": [ {
          "system": "http://snomed.info/sct",
          "code": "32485007"
        } ]
      } ],
      "subject": {
        "reference": "Patient/971fefaa-cfa2-4e36-80d6-319f748d4b5f"
      },
      "period": {
        "start": "2026-11-20T08:00:00.000Z",
        "end": "2026-11-24T08:15:00.000Z"
      },
      "length": {
        "value": 4,
        "unit": "days"
      },
      "reasonReference": [ {
        "reference": "Condition/74acd39d-e92a-479a-aed4-12fbb50b0b14"
      } ],
      "hospitalization": {
        "dischargeDisposition": {
          "coding": [ {
            "system": "http://snomed.info/sct",
            "code": "445060000",
            "display": "Left Against Medical Advice"
          } ]
        }
      }
    },
    "request": {
      "method": "PUT",
      "url": "Encounter/45fd9279-fa50-4054-8c7c-aae83fd2672d"
    }
  }, {
    "fullUrl": "https://madie.cms.gov/Claim/1e21decd-0586-4637-b6a0-060f1e8f007b",
    "resource": {
      "resourceType": "Claim",
      "id": "1e21decd-0586-4637-b6a0-060f1e8f007b",
      "meta": {
        "profile": [ "http://hl7.org/fhir/us/qicore/StructureDefinition/qicore-claim" ]
      },
      "status": "active",
      "type": {
        "coding": [ {
          "system": "http://terminology.hl7.org/CodeSystem/claim-type",
          "code": "institutional"
        } ]
      },
      "use": "claim",
      "patient": {
        "reference": "Patient/971fefaa-cfa2-4e36-80d6-319f748d4b5f"
      },
      "created": "2026-12-01",
      "provider": {
        "reference": "Practitioner/54d598fe-7960-4120-8927-285de8b043d4"
      },
      "priority": {
        "coding": [ {
          "system": "http://terminology.hl7.org/CodeSystem/processpriority",
          "code": "normal"
        } ]
      },
      "diagnosis": [ {
        "sequence": 1,
        "diagnosisCodeableConcept": {
          "coding": [ {
            "system": "http://hl7.org/fhir/sid/icd-10-cm",
            "code": "I63.00"
          } ]
        },
        "type": [ {
          "coding": [ {
            "system": "http://terminology.hl7.org/CodeSystem/ex-diagnosistype",
            "code": "principal"
          } ]
        } ]
      } ],
      "insurance": [ {
        "sequence": 1,
        "focal": true,
        "coverage": {
          "reference": "Coverage/5fa041661c76ba66d9959367"
        }
      } ],
      "item": [ {
        "sequence": 1,
        "diagnosisSequence": [ 1 ],
        "productOrService": {
          "coding": [ {
            "system": "http://terminology.hl7.org/CodeSystem/ex-USCLS",
            "code": "99555"
          } ]
        },
        "encounter": [ {
          "reference": "Encounter/45fd9279-fa50-4054-8c7c-aae83fd2672d"
        } ]
      } ]
    },
    "request": {
      "method": "PUT",
      "url": "Claim/1e21decd-0586-4637-b6a0-060f1e8f007b"
    }
  }, {
    "fullUrl": "https://madie.cms.gov/Coverage/947d00cb-9c29-4fef-bb2c-0cd4ba5e7068",
    "resource": {
      "resourceType": "Coverage",
      "id": "947d00cb-9c29-4fef-bb2c-0cd4ba5e7068",
      "meta": {
        "profile": [ "http://hl7.org/fhir/us/qicore/StructureDefinition/qicore-coverage" ]
      },
      "status": "active",
      "subscriberId": "523435",
      "beneficiary": {
        "reference": "Patient/971fefaa-cfa2-4e36-80d6-319f748d4b5f"
      },
      "relationship": {
        "coding": [ {
          "system": "http://terminology.hl7.org/CodeSystem/subscriber-relationship",
          "code": "self"
        } ]
      },
      "payor": [ {
        "reference": "Organization/2ec1d021-0163-4efe-9681-cdf0710bd1e1"
      } ]
    },
    "request": {
      "method": "PUT",
      "url": "Coverage/947d00cb-9c29-4fef-bb2c-0cd4ba5e7068"
    }
  }, {
    "fullUrl": "https://madie.cms.gov/Procedure/f679c6f2-a516-412b-8976-387e58b6c0af",
    "resource": {
      "resourceType": "Procedure",
      "id": "f679c6f2-a516-412b-8976-387e58b6c0af",
      "meta": {
        "profile": [ "http://hl7.org/fhir/us/qicore/StructureDefinition/qicore-procedure" ]
      },
      "extension": [ {
        "url": "http://hl7.org/fhir/us/qicore/StructureDefinition/qicore-recorded",
        "valueDateTime": "2026-11-19T13:35:00.000Z"
      } ],
      "status": "completed",
      "code": {
        "coding": [ {
          "system": "http://www.cms.gov/Medicare/Coding/ICD10",
          "code": "02560ZZ"
        }, {
          "system": "http://snomed.info/sct",
          "code": "175095005"
        } ]
      },
      "subject": {
        "reference": "Patient/971fefaa-cfa2-4e36-80d6-319f748d4b5f"
      },
      "performedPeriod": {
        "start": "2026-11-19T08:00:00.000Z",
        "end": "2026-11-20T08:15:00.000Z"
      }
    },
    "request": {
      "method": "PUT",
      "url": "Procedure/f679c6f2-a516-412b-8976-387e58b6c0af"
    }
  }, {
    "fullUrl": "https://madie.cms.gov/Condition/74acd39d-e92a-479a-aed4-12fbb50b0b14",
    "resource": {
      "resourceType": "Condition",
      "id": "74acd39d-e92a-479a-aed4-12fbb50b0b14",
      "meta": {
        "profile": [ "http://hl7.org/fhir/us/qicore/StructureDefinition/qicore-condition-encounter-diagnosis" ]
      },
      "clinicalStatus": {
        "coding": [ {
          "system": "http://terminology.hl7.org/CodeSystem/condition-clinical",
          "code": "active"
        } ]
      },
      "verificationStatus": {
        "coding": [ {
          "system": "http://terminology.hl7.org/CodeSystem/condition-ver-status",
          "code": "confirmed"
        } ]
      },
      "category": [ {
        "coding": [ {
          "system": "http://terminology.hl7.org/CodeSystem/condition-category",
          "code": "encounter-diagnosis",
          "display": "Encounter Diagnosis"
        } ]
      } ],
      "code": {
        "coding": [ {
          "system": "http://snomed.info/sct",
          "version": "2021-09",
          "code": "111297002",
          "display": "Nonparalytic stroke (disorder)",
          "userSelected": true
        } ]
      },
      "subject": {
        "reference": "Patient/971fefaa-cfa2-4e36-80d6-319f748d4b5f"
      },
      "recordedDate": "2026-10-04T08:00:00.000Z"
    },
    "request": {
      "method": "PUT",
      "url": "Condition/74acd39d-e92a-479a-aed4-12fbb50b0b14"
    }
  }, {
    "fullUrl": "https://madie.cms.gov/Organization/2ec1d021-0163-4efe-9681-cdf0710bd1e1",
    "resource": {
      "resourceType": "Organization",
      "id": "2ec1d021-0163-4efe-9681-cdf0710bd1e1",
      "meta": {
        "profile": [ "http://hl7.org/fhir/us/qicore/StructureDefinition/qicore-organization" ]
      },
      "identifier": [ {
        "use": "temp",
        "system": "urn:oid:2.16.840.1.113883.4.4",
        "value": "21-3259825"
      } ],
      "active": true,
      "type": [ {
        "coding": [ {
          "system": "http://terminology.hl7.org/CodeSystem/organization-type",
          "code": "pay",
          "display": "Payer"
        } ]
      } ],
      "name": "Blue Cross Blue Shield of Texas",
      "telecom": [ {
        "system": "phone",
        "value": "(+1) 972-766-6900"
      } ],
      "address": [ {
        "use": "billing",
        "type": "postal",
        "line": [ "P.O. Box 660044" ],
        "city": "Dallas",
        "state": "TX",
        "postalCode": "75266-0044",
        "country": "USA"
      } ]
    },
    "request": {
      "method": "PUT",
      "url": "Organization/2ec1d021-0163-4efe-9681-cdf0710bd1e1"
    }
  }, {
    "fullUrl": "https://madie.cms.gov/Practitioner/54d598fe-7960-4120-8927-285de8b043d4",
    "resource": {
      "resourceType": "Practitioner",
      "id": "54d598fe-7960-4120-8927-285de8b043d4",
      "meta": {
        "profile": [ "http://hl7.org/fhir/us/qicore/StructureDefinition/qicore-practitioner" ]
      },
      "identifier": [ {
        "system": "http://hl7.org/fhir/sid/us-npi",
        "value": "9999999896"
      } ],
      "name": [ {
        "family": "Evil",
        "prefix": [ "Dr" ]
      } ]
    },
    "request": {
      "method": "PUT",
      "url": "Practitioner/54d598fe-7960-4120-8927-285de8b043d4"
    }
  }, {
    "fullUrl": "https://madie.cms.gov/MeasureReport/2361150c-0932-47ac-b9a7-87100f36fc0d",
    "resource": {
      "resourceType": "MeasureReport",
      "id": "2361150c-0932-47ac-b9a7-87100f36fc0d",
      "meta": {
        "profile": [ "http://hl7.org/fhir/us/cqfmeasures/StructureDefinition/test-case-cqfm" ]
      },
      "contained": [ {
        "resourceType": "Parameters",
        "id": "a04256e5-01bc-4085-923c-46ab84caaf88-parameters",
        "parameter": [ {
          "name": "subject",
          "valueString": "971fefaa-cfa2-4e36-80d6-319f748d4b5f"
        } ]
      } ],
      "extension": [ {
        "url": "http://hl7.org/fhir/StructureDefinition/cqf-inputParameters",
        "valueReference": {
          "reference": "#a04256e5-01bc-4085-923c-46ab84caaf88-parameters"
        }
      }, {
        "url": "http://hl7.org/fhir/us/cqfmeasures/StructureDefinition/cqfm-testCaseDescription",
        "valueMarkdown": "Added this to test Payer"
      } ],
      "modifierExtension": [ {
        "url": "http://hl7.org/fhir/us/cqfmeasures/StructureDefinition/cqfm-isTestCase",
        "valueBoolean": true
      } ],
      "status": "complete",
      "type": "individual",
      "measure": "https://madie.cms.gov/Measure/CMS71FHIRSTKAnticoagAFFlutter",
      "period": {
        "start": "2026-01-01",
        "end": "2026-12-31"
      },
      "group": [ {
        "id": "Group_1",
        "population": [ {
          "id": "InitialPopulation_1",
          "code": {
            "coding": [ {
              "system": "http://terminology.hl7.org/CodeSystem/measure-population",
              "code": "initial-population",
              "display": "Initial Population"
            } ]
          },
          "count": 1
        }, {
          "id": "Denominator_1",
          "code": {
            "coding": [ {
              "system": "http://terminology.hl7.org/CodeSystem/measure-population",
              "code": "denominator",
              "display": "Denominator"
            } ]
          },
          "count": 1
        }, {
          "id": "DenominatorExclusion_1",
          "code": {
            "coding": [ {
              "system": "http://terminology.hl7.org/CodeSystem/measure-population",
              "code": "denominator-exclusion",
              "display": "Denominator Exclusion"
            } ]
          },
          "count": 1
        }, {
          "id": "Numerator_1",
          "code": {
            "coding": [ {
              "system": "http://terminology.hl7.org/CodeSystem/measure-population",
              "code": "numerator",
              "display": "Numerator"
            } ]
          },
          "count": 0
        }, {
          "id": "DenominatorException_1",
          "code": {
            "coding": [ {
              "system": "http://terminology.hl7.org/CodeSystem/measure-population",
              "code": "denominator-exception",
              "display": "Denominator Exception"
            } ]
          },
          "count": 0
        } ],
        "measureScore": {
          "value": 0.0
        }
      } ],
      "evaluatedResource": [ {
        "reference": "Patient/971fefaa-cfa2-4e36-80d6-319f748d4b5f"
      }, {
        "reference": "Encounter/45fd9279-fa50-4054-8c7c-aae83fd2672d"
      }, {
        "reference": "Claim/1e21decd-0586-4637-b6a0-060f1e8f007b"
      }, {
        "reference": "Coverage/947d00cb-9c29-4fef-bb2c-0cd4ba5e7068"
      }, {
        "reference": "Procedure/f679c6f2-a516-412b-8976-387e58b6c0af"
      }, {
        "reference": "Condition/74acd39d-e92a-479a-aed4-12fbb50b0b14"
      }, {
        "reference": "Organization/2ec1d021-0163-4efe-9681-cdf0710bd1e1"
      }, {
        "reference": "Practitioner/54d598fe-7960-4120-8927-285de8b043d4"
      } ]
    },
    "request": {
      "method": "PUT",
      "url": "MeasureReport/2361150c-0932-47ac-b9a7-87100f36fc0d"
    }
  } ]
}