{
  "resourceType": "Bundle",
  "id": "633c9d040968f8012250fca7",
  "type": "transaction",
  "entry": [ {
    "fullUrl": "https://madie.cms.gov/Patient/0c90d2ea-5034-4465-8e4a-4d0d4e17cd5a",
    "resource": {
      "resourceType": "Patient",
      "id": "0c90d2ea-5034-4465-8e4a-4d0d4e17cd5a",
      "meta": {
        "profile": [ "http://hl7.org/fhir/us/qicore/StructureDefinition/qicore-patient" ]
      },
      "text": {
        "status": "generated",
        "div": "<div xmlns=\"http://www.w3.org/1999/xhtml\"><div class=\"hapiHeaderText\">CMOdurED_ED&gt;1hrObs&gt;1hrBFEnc <b>DENEXFAIL </b></div><table class=\"hapiPropertyTable\"><tbody><tr><td>Identifier</td><td>b071f8846ebde5085dfbfab832ea39a12264592e0d7b151bd51d996298ce6f35</td></tr><tr><td>Date of birth</td><td><span>18 September 1985</span></td></tr></tbody></table></div>"
      },
      "extension": [ {
        "url": "http://hl7.org/fhir/us/core/StructureDefinition/us-core-race",
        "extension": [ {
          "url": "ombCategory",
          "valueCoding": {
            "system": "urn:oid:2.16.840.1.113883.6.238",
            "code": "1002-5",
            "display": "American Indian or Alaska Native",
            "userSelected": true
          }
        }, {
          "url": "text",
          "valueString": "American Indian or Alaska Native"
        } ]
      }, {
        "url": "http://hl7.org/fhir/us/core/StructureDefinition/us-core-ethnicity",
        "extension": [ {
          "url": "ombCategory",
          "valueCoding": {
            "system": "urn:oid:2.16.840.1.113883.6.238",
            "code": "2135-2",
            "display": "Hispanic or Latino",
            "userSelected": true
          }
        }, {
          "url": "text",
          "valueString": "Hispanic or Latino"
        } ]
      } ],
      "identifier": [ {
        "type": {
          "coding": [ {
            "system": "http://terminology.hl7.org/CodeSystem/v2-0203",
            "code": "MR"
          } ]
        },
        "system": "https://bonnie-fhir.healthit.gov/",
        "value": "633c9d040968f8012250fca7"
      } ],
      "active": true,
      "name": [ {
        "use": "usual",
        "family": "DENEXFail",
        "given": [ "CMOdurED_ED>1hrObs>1hrBFEnc" ]
      } ],
      "gender": "female",
      "birthDate": "1986-09-18"
    },
    "request": {
      "method": "PUT",
      "url": "Patient/0c90d2ea-5034-4465-8e4a-4d0d4e17cd5a"
    }
  }, {
    "fullUrl": "https://madie.cms.gov/Condition/10a51a5c-7f03-49c8-8bbb-ac3ab0b3bb3f",
    "resource": {
      "resourceType": "Condition",
      "id": "10a51a5c-7f03-49c8-8bbb-ac3ab0b3bb3f",
      "meta": {
        "profile": [ "http://hl7.org/fhir/us/qicore/StructureDefinition/qicore-condition-encounter-diagnosis" ]
      },
      "clinicalStatus": {
        "coding": [ {
          "system": "http://terminology.hl7.org/CodeSystem/condition-clinical",
          "code": "inactive"
        } ]
      },
      "verificationStatus": {
        "coding": [ {
          "system": "http://terminology.hl7.org/CodeSystem/condition-ver-status",
          "code": "confirmed"
        } ]
      },
      "category": [ {
        "coding": [ {
          "system": "http://terminology.hl7.org/CodeSystem/condition-category",
          "code": "encounter-diagnosis",
          "display": "Encounter Diagnosis"
        } ]
      } ],
      "code": {
        "coding": [ {
          "system": "http://hl7.org/fhir/sid/icd-9-cm",
          "code": "427.31"
        }, {
          "system": "http://hl7.org/fhir/sid/icd-10-cm",
          "code": "I48.0"
        }, {
          "system": "http://snomed.info/sct",
          "code": "5370000"
        } ]
      },
      "subject": {
        "reference": "Patient/0c90d2ea-5034-4465-8e4a-4d0d4e17cd5a"
      },
      "onsetDateTime": "2026-10-01T09:00:00.000Z",
      "abatementDateTime": "2026-10-12T00:15:00.000Z"
    },
    "request": {
      "method": "PUT",
      "url": "Condition/10a51a5c-7f03-49c8-8bbb-ac3ab0b3bb3f"
    }
  }, {
    "fullUrl": "https://madie.cms.gov/Encounter/846f639e-ccb4-4bae-8aba-dd70934d7201",
    "resource": {
      "resourceType": "Encounter",
      "id": "846f639e-ccb4-4bae-8aba-dd70934d7201",
      "meta": {
        "profile": [ "http://hl7.org/fhir/us/qicore/StructureDefinition/qicore-encounter" ]
      },
      "status": "finished",
      "class": {
        "system": "http://terminology.hl7.org/CodeSystem/v3-ActCode",
        "code": "EMER",
        "display": "emergency"
      },
      "type": [ {
        "coding": [ {
          "system": "http://snomed.info/sct",
          "code": "4525004"
        } ]
      } ],
      "subject": {
        "reference": "Patient/0c90d2ea-5034-4465-8e4a-4d0d4e17cd5a"
      },
      "period": {
        "start": "2026-09-30T06:59:00.000Z",
        "end": "2026-09-30T07:00:00.000Z"
      },
      "length": {
        "value": 0,
        "unit": "days"
      }
    },
    "request": {
      "method": "PUT",
      "url": "Encounter/846f639e-ccb4-4bae-8aba-dd70934d7201"
    }
  }, {
    "fullUrl": "https://madie.cms.gov/Encounter/e4151522-8dab-466b-8e76-063453e02ee3",
    "resource": {
      "resourceType": "Encounter",
      "id": "e4151522-8dab-466b-8e76-063453e02ee3",
      "meta": {
        "profile": [ "http://hl7.org/fhir/us/qicore/StructureDefinition/qicore-encounter" ]
      },
      "status": "finished",
      "class": {
        "system": "http://terminology.hl7.org/CodeSystem/v3-ActCode",
        "code": "OBSENC",
        "display": "observation encounter"
      },
      "type": [ {
        "coding": [ {
          "system": "http://snomed.info/sct",
          "code": "448851000124103"
        } ]
      } ],
      "subject": {
        "reference": "Patient/0c90d2ea-5034-4465-8e4a-4d0d4e17cd5a"
      },
      "period": {
        "start": "2026-09-30T08:01:00.000Z",
        "end": "2026-09-30T08:05:00.000Z"
      },
      "length": {
        "value": 0,
        "unit": "days"
      }
    },
    "request": {
      "method": "PUT",
      "url": "Encounter/e4151522-8dab-466b-8e76-063453e02ee3"
    }
  }, {
    "fullUrl": "https://madie.cms.gov/Encounter/e86cd7b1-9fc5-4790-b24b-d79ad823b34b",
    "resource": {
      "resourceType": "Encounter",
      "id": "e86cd7b1-9fc5-4790-b24b-d79ad823b34b",
      "meta": {
        "profile": [ "http://hl7.org/fhir/us/qicore/StructureDefinition/qicore-encounter" ]
      },
      "status": "finished",
      "class": {
        "system": "http://terminology.hl7.org/CodeSystem/v3-ActCode",
        "code": "IMP",
        "display": "inpatient encounter"
      },
      "type": [ {
        "coding": [ {
          "system": "http://snomed.info/sct",
          "code": "32485007"
        } ]
      } ],
      "subject": {
        "reference": "Patient/0c90d2ea-5034-4465-8e4a-4d0d4e17cd5a"
      },
      "period": {
        "start": "2026-09-30T09:06:00.000Z",
        "end": "2026-10-12T00:15:00.000Z"
      },
      "length": {
        "value": 12,
        "unit": "days"
      },
      "reasonReference": [ {
        "reference": "Condition/10a51a5c-7f03-49c8-8bbb-ac3ab0b3bb3f"
      } ],
      "hospitalization": {
        "dischargeDisposition": {
          "coding": [ {
            "system": "http://snomed.info/sct",
            "code": "10161009",
            "display": "Discharge To Home Or Police Custody"
          } ]
        }
      }
    },
    "request": {
      "method": "PUT",
      "url": "Encounter/e86cd7b1-9fc5-4790-b24b-d79ad823b34b"
    }
  }, {
    "fullUrl": "https://madie.cms.gov/ServiceRequest/ee360c11-117d-4ed9-8412-1165d8d28642",
    "resource": {
      "resourceType": "ServiceRequest",
      "id": "ee360c11-117d-4ed9-8412-1165d8d28642",
      "meta": {
        "profile": [ "http://hl7.org/fhir/us/qicore/StructureDefinition/qicore-servicerequest" ]
      },
      "status": "active",
      "intent": "order",
      "code": {
        "coding": [ {
          "system": "http://snomed.info/sct",
          "code": "133918004"
        } ]
      },
      "subject": {
        "reference": "Patient/0c90d2ea-5034-4465-8e4a-4d0d4e17cd5a"
      },
      "authoredOn": "2026-09-30T06:59:00.000Z"
    },
    "request": {
      "method": "PUT",
      "url": "ServiceRequest/ee360c11-117d-4ed9-8412-1165d8d28642"
    }
  }, {
    "fullUrl": "https://madie.cms.gov/Coverage/3a29492a-8f8a-4391-a45c-e71dd4020383",
    "resource": {
      "resourceType": "Coverage",
      "id": "3a29492a-8f8a-4391-a45c-e71dd4020383",
      "meta": {
        "profile": [ "http://hl7.org/fhir/us/qicore/StructureDefinition/qicore-coverage" ]
      },
      "status": "active",
      "subscriberId": "523435",
      "beneficiary": {
        "reference": "Patient/0c90d2ea-5034-4465-8e4a-4d0d4e17cd5a"
      },
      "relationship": {
        "coding": [ {
          "system": "http://terminology.hl7.org/CodeSystem/subscriber-relationship",
          "code": "self"
        } ]
      },
      "payor": [ {
        "reference": "Organization/e0c1a257-3487-4862-92c9-52c5f9de7766"
      } ]
    },
    "request": {
      "method": "PUT",
      "url": "Coverage/3a29492a-8f8a-4391-a45c-e71dd4020383"
    }
  }, {
    "fullUrl": "https://madie.cms.gov/Claim/a2050942-ca3f-4d47-917c-3658a364990f",
    "resource": {
      "resourceType": "Claim",
      "id": "a2050942-ca3f-4d47-917c-3658a364990f",
      "meta": {
        "profile": [ "http://hl7.org/fhir/us/qicore/StructureDefinition/qicore-claim" ]
      },
      "status": "active",
      "type": {
        "coding": [ {
          "system": "http://terminology.hl7.org/CodeSystem/claim-type",
          "code": "institutional"
        } ]
      },
      "use": "claim",
      "patient": {
        "reference": "Patient/0c90d2ea-5034-4465-8e4a-4d0d4e17cd5a"
      },
      "created": "2026-12-01",
      "provider": {
        "reference": "Practitioner/97654b50-ec7b-45d4-8aa1-4f08f7fdef2d"
      },
      "priority": {
        "coding": [ {
          "system": "http://terminology.hl7.org/CodeSystem/processpriority",
          "code": "normal"
        } ]
      },
      "diagnosis": [ {
        "sequence": 1,
        "diagnosisCodeableConcept": {
          "coding": [ {
            "system": "http://hl7.org/fhir/sid/icd-10-cm",
            "code": "I63.00"
          } ]
        },
        "type": [ {
          "coding": [ {
            "system": "http://terminology.hl7.org/CodeSystem/ex-diagnosistype",
            "code": "principal"
          } ]
        } ]
      } ],
      "insurance": [ {
        "sequence": 1,
        "focal": true,
        "coverage": {
          "reference": "Coverage/5fa041661c76ba66d9959367"
        }
      } ],
      "item": [ {
        "sequence": 1,
        "diagnosisSequence": [ 1 ],
        "productOrService": {
          "coding": [ {
            "system": "http://terminology.hl7.org/CodeSystem/ex-USCLS",
            "code": "99555"
          } ]
        },
        "encounter": [ {
          "reference": "Encounter/e86cd7b1-9fc5-4790-b24b-d79ad823b34b"
        } ]
      } ]
    },
    "request": {
      "method": "PUT",
      "url": "Claim/a2050942-ca3f-4d47-917c-3658a364990f"
    }
  }, {
    "fullUrl": "https://madie.cms.gov/Condition/096f8490-a061-4704-9bc7-50443b7811d6",
    "resource": {
      "resourceType": "Condition",
      "id": "096f8490-a061-4704-9bc7-50443b7811d6",
      "meta": {
        "profile": [ "http://hl7.org/fhir/us/qicore/StructureDefinition/qicore-condition-encounter-diagnosis" ]
      },
      "clinicalStatus": {
        "coding": [ {
          "system": "http://terminology.hl7.org/CodeSystem/condition-clinical",
          "code": "active"
        } ]
      },
      "verificationStatus": {
        "coding": [ {
          "system": "http://terminology.hl7.org/CodeSystem/condition-ver-status",
          "code": "confirmed"
        } ]
      },
      "category": [ {
        "coding": [ {
          "system": "http://terminology.hl7.org/CodeSystem/condition-category",
          "code": "encounter-diagnosis",
          "display": "Encounter Diagnosis"
        } ]
      } ],
      "code": {
        "coding": [ {
          "system": "http://snomed.info/sct",
          "version": "2021-09",
          "code": "111297002",
          "display": "Nonparalytic stroke (disorder)",
          "userSelected": true
        } ]
      },
      "subject": {
        "reference": "Patient/0c90d2ea-5034-4465-8e4a-4d0d4e17cd5a"
      },
      "recordedDate": "2026-10-13T08:00:00.000Z"
    },
    "request": {
      "method": "PUT",
      "url": "Condition/096f8490-a061-4704-9bc7-50443b7811d6"
    }
  }, {
    "fullUrl": "https://madie.cms.gov/Organization/e0c1a257-3487-4862-92c9-52c5f9de7766",
    "resource": {
      "resourceType": "Organization",
      "id": "e0c1a257-3487-4862-92c9-52c5f9de7766",
      "meta": {
        "profile": [ "http://hl7.org/fhir/us/qicore/StructureDefinition/qicore-organization" ]
      },
      "identifier": [ {
        "use": "temp",
        "system": "urn:oid:2.16.840.1.113883.4.4",
        "value": "21-3259825"
      } ],
      "active": true,
      "type": [ {
        "coding": [ {
          "system": "http://terminology.hl7.org/CodeSystem/organization-type",
          "code": "pay",
          "display": "Payer"
        } ]
      } ],
      "name": "Blue Cross Blue Shield of Texas",
      "telecom": [ {
        "system": "phone",
        "value": "(+1) 972-766-6900"
      } ],
      "address": [ {
        "use": "billing",
        "type": "postal",
        "line": [ "P.O. Box 660044" ],
        "city": "Dallas",
        "state": "TX",
        "postalCode": "75266-0044",
        "country": "USA"
      } ]
    },
    "request": {
      "method": "PUT",
      "url": "Organization/e0c1a257-3487-4862-92c9-52c5f9de7766"
    }
  }, {
    "fullUrl": "https://madie.cms.gov/Practitioner/97654b50-ec7b-45d4-8aa1-4f08f7fdef2d",
    "resource": {
      "resourceType": "Practitioner",
      "id": "97654b50-ec7b-45d4-8aa1-4f08f7fdef2d",
      "meta": {
        "profile": [ "http://hl7.org/fhir/us/qicore/StructureDefinition/qicore-practitioner" ]
      },
      "identifier": [ {
        "system": "http://hl7.org/fhir/sid/us-npi",
        "value": "9999999896"
      } ],
      "name": [ {
        "family": "Evil",
        "prefix": [ "Dr" ]
      } ]
    },
    "request": {
      "method": "PUT",
      "url": "Practitioner/97654b50-ec7b-45d4-8aa1-4f08f7fdef2d"
    }
  }, {
    "fullUrl": "https://madie.cms.gov/MeasureReport/e7fbb9fc-29d9-4964-9117-7b0d4f3ce786",
    "resource": {
      "resourceType": "MeasureReport",
      "id": "e7fbb9fc-29d9-4964-9117-7b0d4f3ce786",
      "meta": {
        "profile": [ "http://hl7.org/fhir/us/cqfmeasures/StructureDefinition/test-case-cqfm" ]
      },
      "contained": [ {
        "resourceType": "Parameters",
        "id": "7f10c705-df1d-4027-9615-162205437078-parameters",
        "parameter": [ {
          "name": "subject",
          "valueString": "0c90d2ea-5034-4465-8e4a-4d0d4e17cd5a"
        } ]
      } ],
      "extension": [ {
        "url": "http://hl7.org/fhir/StructureDefinition/cqf-inputParameters",
        "valueReference": {
          "reference": "#7f10c705-df1d-4027-9615-162205437078-parameters"
        }
      }, {
        "url": "http://hl7.org/fhir/us/cqfmeasures/StructureDefinition/cqfm-testCaseDescription",
        "valueMarkdown": "Patient receives CMO order during ED. ED visit ends 61 min. before Obs start, Obs ends 61 min before Inpatient encounter. Testing HospitalizationWithObservation function.\n"
      } ],
      "modifierExtension": [ {
        "url": "http://hl7.org/fhir/us/cqfmeasures/StructureDefinition/cqfm-isTestCase",
        "valueBoolean": true
      } ],
      "status": "complete",
      "type": "individual",
      "measure": "https://madie.cms.gov/Measure/CMS71FHIRSTKAnticoagAFFlutter",
      "period": {
        "start": "2026-01-01",
        "end": "2026-12-31"
      },
      "group": [ {
        "id": "Group_1",
        "population": [ {
          "id": "InitialPopulation_1",
          "code": {
            "coding": [ {
              "system": "http://terminology.hl7.org/CodeSystem/measure-population",
              "code": "initial-population",
              "display": "Initial Population"
            } ]
          },
          "count": 1
        }, {
          "id": "Denominator_1",
          "code": {
            "coding": [ {
              "system": "http://terminology.hl7.org/CodeSystem/measure-population",
              "code": "denominator",
              "display": "Denominator"
            } ]
          },
          "count": 1
        }, {
          "id": "DenominatorExclusion_1",
          "code": {
            "coding": [ {
              "system": "http://terminology.hl7.org/CodeSystem/measure-population",
              "code": "denominator-exclusion",
              "display": "Denominator Exclusion"
            } ]
          },
          "count": 0
        }, {
          "id": "Numerator_1",
          "code": {
            "coding": [ {
              "system": "http://terminology.hl7.org/CodeSystem/measure-population",
              "code": "numerator",
              "display": "Numerator"
            } ]
          },
          "count": 0
        }, {
          "id": "DenominatorException_1",
          "code": {
            "coding": [ {
              "system": "http://terminology.hl7.org/CodeSystem/measure-population",
              "code": "denominator-exception",
              "display": "Denominator Exception"
            } ]
          },
          "count": 0
        } ],
        "measureScore": {
          "value": 0.0
        }
      } ],
      "evaluatedResource": [ {
        "reference": "Patient/0c90d2ea-5034-4465-8e4a-4d0d4e17cd5a"
      }, {
        "reference": "Condition/10a51a5c-7f03-49c8-8bbb-ac3ab0b3bb3f"
      }, {
        "reference": "Encounter/846f639e-ccb4-4bae-8aba-dd70934d7201"
      }, {
        "reference": "Encounter/e4151522-8dab-466b-8e76-063453e02ee3"
      }, {
        "reference": "Encounter/e86cd7b1-9fc5-4790-b24b-d79ad823b34b"
      }, {
        "reference": "ServiceRequest/ee360c11-117d-4ed9-8412-1165d8d28642"
      }, {
        "reference": "Coverage/3a29492a-8f8a-4391-a45c-e71dd4020383"
      }, {
        "reference": "Claim/a2050942-ca3f-4d47-917c-3658a364990f"
      }, {
        "reference": "Condition/096f8490-a061-4704-9bc7-50443b7811d6"
      }, {
        "reference": "Organization/e0c1a257-3487-4862-92c9-52c5f9de7766"
      }, {
        "reference": "Practitioner/97654b50-ec7b-45d4-8aa1-4f08f7fdef2d"
      } ]
    },
    "request": {
      "method": "PUT",
      "url": "MeasureReport/e7fbb9fc-29d9-4964-9117-7b0d4f3ce786"
    }
  } ]
}