{
  "resourceType": "Bundle",
  "id": "633c9d030968f8012250fc9a",
  "type": "transaction",
  "entry": [ {
    "fullUrl": "https://madie.cms.gov/Patient/29fd4e9e-7f7c-4356-8d72-7eabc8060963",
    "resource": {
      "resourceType": "Patient",
      "id": "29fd4e9e-7f7c-4356-8d72-7eabc8060963",
      "meta": {
        "profile": [ "http://hl7.org/fhir/us/qicore/StructureDefinition/qicore-patient" ]
      },
      "text": {
        "status": "generated",
        "div": "<div xmlns=\"http://www.w3.org/1999/xhtml\"><div class=\"hapiHeaderText\">Dx=Afib/flutterStart&gt;EncEnd <b>DENOMFAIL </b></div><table class=\"hapiPropertyTable\"><tbody><tr><td>Identifier</td><td>6b7cd5f3b5c915e66087549c0e58b13c</td></tr><tr><td>Date of birth</td><td><span>01 December 1960</span></td></tr></tbody></table></div>"
      },
      "extension": [ {
        "url": "http://hl7.org/fhir/us/core/StructureDefinition/us-core-race",
        "extension": [ {
          "url": "ombCategory",
          "valueCoding": {
            "system": "urn:oid:2.16.840.1.113883.6.238",
            "code": "1002-5",
            "display": "American Indian or Alaska Native",
            "userSelected": true
          }
        }, {
          "url": "text",
          "valueString": "American Indian or Alaska Native"
        } ]
      }, {
        "url": "http://hl7.org/fhir/us/core/StructureDefinition/us-core-ethnicity",
        "extension": [ {
          "url": "ombCategory",
          "valueCoding": {
            "system": "urn:oid:2.16.840.1.113883.6.238",
            "code": "2135-2",
            "display": "Hispanic or Latino",
            "userSelected": true
          }
        }, {
          "url": "text",
          "valueString": "Hispanic or Latino"
        } ]
      } ],
      "identifier": [ {
        "type": {
          "coding": [ {
            "system": "http://terminology.hl7.org/CodeSystem/v2-0203",
            "code": "MR"
          } ]
        },
        "system": "https://bonnie-fhir.healthit.gov/",
        "value": "633c9d030968f8012250fc9a"
      } ],
      "active": true,
      "name": [ {
        "use": "usual",
        "family": "DENOMFail",
        "given": [ "Dx=Afib/flutterStart>EncEnd" ]
      } ],
      "gender": "male",
      "birthDate": "1961-12-01"
    },
    "request": {
      "method": "PUT",
      "url": "Patient/29fd4e9e-7f7c-4356-8d72-7eabc8060963"
    }
  }, {
    "fullUrl": "https://madie.cms.gov/Condition/3aad478f-e9ac-4f1f-a63d-5a14dbbbd609",
    "resource": {
      "resourceType": "Condition",
      "id": "3aad478f-e9ac-4f1f-a63d-5a14dbbbd609",
      "meta": {
        "profile": [ "http://hl7.org/fhir/us/qicore/StructureDefinition/qicore-condition-encounter-diagnosis" ]
      },
      "clinicalStatus": {
        "coding": [ {
          "system": "http://terminology.hl7.org/CodeSystem/condition-clinical",
          "code": "inactive"
        } ]
      },
      "verificationStatus": {
        "coding": [ {
          "system": "http://terminology.hl7.org/CodeSystem/condition-ver-status",
          "code": "confirmed"
        } ]
      },
      "category": [ {
        "coding": [ {
          "system": "http://terminology.hl7.org/CodeSystem/condition-category",
          "code": "encounter-diagnosis",
          "display": "Encounter Diagnosis"
        } ]
      } ],
      "code": {
        "coding": [ {
          "system": "http://snomed.info/sct",
          "code": "195080001"
        }, {
          "system": "http://hl7.org/fhir/sid/icd-9-cm",
          "code": "427.31"
        }, {
          "system": "http://hl7.org/fhir/sid/icd-10-cm",
          "code": "I48.0"
        } ]
      },
      "subject": {
        "reference": "Patient/29fd4e9e-7f7c-4356-8d72-7eabc8060963"
      },
      "encounter": {
        "reference": "Encounter/58af8476-4614-4316-9c34-1f1146a509a9"
      },
      "onsetDateTime": "2026-02-11T08:15:00.000Z",
      "abatementDateTime": "2026-02-11T08:15:00.000Z"
    },
    "request": {
      "method": "PUT",
      "url": "Condition/3aad478f-e9ac-4f1f-a63d-5a14dbbbd609"
    }
  }, {
    "fullUrl": "https://madie.cms.gov/Encounter/58af8476-4614-4316-9c34-1f1146a509a9",
    "resource": {
      "resourceType": "Encounter",
      "id": "58af8476-4614-4316-9c34-1f1146a509a9",
      "meta": {
        "profile": [ "http://hl7.org/fhir/us/qicore/StructureDefinition/qicore-encounter" ]
      },
      "status": "finished",
      "class": {
        "system": "http://terminology.hl7.org/CodeSystem/v3-ActCode",
        "code": "IMP",
        "display": "inpatient encounter"
      },
      "type": [ {
        "coding": [ {
          "system": "http://snomed.info/sct",
          "code": "183452005"
        } ]
      } ],
      "subject": {
        "reference": "Patient/29fd4e9e-7f7c-4356-8d72-7eabc8060963"
      },
      "period": {
        "start": "2026-02-08T08:00:00.000Z",
        "end": "2026-02-10T08:15:00.000Z"
      },
      "length": {
        "value": 2,
        "unit": "days"
      },
      "reasonReference": [ {
        "reference": "Condition/23970570-02b0-471e-9e0d-2b2812fd2c09"
      } ]
    },
    "request": {
      "method": "PUT",
      "url": "Encounter/58af8476-4614-4316-9c34-1f1146a509a9"
    }
  }, {
    "fullUrl": "https://madie.cms.gov/Coverage/9619e6ca-f20f-479b-acd4-f5891c4bf5c5",
    "resource": {
      "resourceType": "Coverage",
      "id": "9619e6ca-f20f-479b-acd4-f5891c4bf5c5",
      "status": "active",
      "subscriberId": "523435",
      "beneficiary": {
        "reference": "Patient/29fd4e9e-7f7c-4356-8d72-7eabc8060963"
      },
      "relationship": {
        "coding": [ {
          "system": "http://terminology.hl7.org/CodeSystem/subscriber-relationship",
          "code": "self"
        } ]
      },
      "period": {
        "start": "1961-12-01T08:00:00.000Z"
      },
      "payor": [ {
        "reference": "Organization/f82af348-20c9-462e-95b6-3bf47fb04af9"
      } ]
    },
    "request": {
      "method": "PUT",
      "url": "Coverage/9619e6ca-f20f-479b-acd4-f5891c4bf5c5"
    }
  }, {
    "fullUrl": "https://madie.cms.gov/Condition/23970570-02b0-471e-9e0d-2b2812fd2c09",
    "resource": {
      "resourceType": "Condition",
      "id": "23970570-02b0-471e-9e0d-2b2812fd2c09",
      "meta": {
        "profile": [ "http://hl7.org/fhir/us/qicore/StructureDefinition/qicore-condition-encounter-diagnosis" ]
      },
      "clinicalStatus": {
        "coding": [ {
          "system": "http://terminology.hl7.org/CodeSystem/condition-clinical",
          "code": "active"
        } ]
      },
      "verificationStatus": {
        "coding": [ {
          "system": "http://terminology.hl7.org/CodeSystem/condition-ver-status",
          "code": "confirmed"
        } ]
      },
      "category": [ {
        "coding": [ {
          "system": "http://terminology.hl7.org/CodeSystem/condition-category",
          "code": "encounter-diagnosis",
          "display": "Encounter Diagnosis"
        } ]
      } ],
      "code": {
        "coding": [ {
          "system": "http://snomed.info/sct",
          "version": "2021-09",
          "code": "111297002",
          "display": "Nonparalytic stroke (disorder)",
          "userSelected": true
        } ]
      },
      "subject": {
        "reference": "Patient/29fd4e9e-7f7c-4356-8d72-7eabc8060963"
      },
      "recordedDate": "2026-10-13T08:00:00.000Z"
    },
    "request": {
      "method": "PUT",
      "url": "Condition/23970570-02b0-471e-9e0d-2b2812fd2c09"
    }
  }, {
    "fullUrl": "https://madie.cms.gov/Claim/d28c672d-1cea-4cb0-9beb-770d0a2ab1c5",
    "resource": {
      "resourceType": "Claim",
      "id": "d28c672d-1cea-4cb0-9beb-770d0a2ab1c5",
      "meta": {
        "profile": [ "http://hl7.org/fhir/us/qicore/StructureDefinition/qicore-claim" ]
      },
      "status": "active",
      "type": {
        "coding": [ {
          "system": "http://terminology.hl7.org/CodeSystem/claim-type",
          "code": "institutional"
        } ]
      },
      "use": "claim",
      "patient": {
        "reference": "Patient/29fd4e9e-7f7c-4356-8d72-7eabc8060963"
      },
      "created": "2026-12-01",
      "provider": {
        "reference": "Practitioner/489ba207-f1ae-44e5-a09c-f9b6e6b8992d"
      },
      "priority": {
        "coding": [ {
          "system": "http://terminology.hl7.org/CodeSystem/processpriority",
          "code": "normal"
        } ]
      },
      "diagnosis": [ {
        "sequence": 1,
        "diagnosisCodeableConcept": {
          "coding": [ {
            "system": "http://hl7.org/fhir/sid/icd-10-cm",
            "code": "I63.00"
          } ]
        },
        "type": [ {
          "coding": [ {
            "system": "http://terminology.hl7.org/CodeSystem/ex-diagnosistype",
            "code": "principal"
          } ]
        } ]
      } ],
      "insurance": [ {
        "sequence": 1,
        "focal": true,
        "coverage": {
          "reference": "Coverage/5fa041661c76ba66d9959367"
        }
      } ],
      "item": [ {
        "sequence": 1,
        "diagnosisSequence": [ 1 ],
        "productOrService": {
          "coding": [ {
            "system": "http://terminology.hl7.org/CodeSystem/ex-USCLS",
            "code": "99555"
          } ]
        },
        "encounter": [ {
          "reference": "Encounter/58af8476-4614-4316-9c34-1f1146a509a9"
        } ]
      } ]
    },
    "request": {
      "method": "PUT",
      "url": "Claim/d28c672d-1cea-4cb0-9beb-770d0a2ab1c5"
    }
  }, {
    "fullUrl": "https://madie.cms.gov/Organization/f82af348-20c9-462e-95b6-3bf47fb04af9",
    "resource": {
      "resourceType": "Organization",
      "id": "f82af348-20c9-462e-95b6-3bf47fb04af9",
      "meta": {
        "profile": [ "http://hl7.org/fhir/us/qicore/StructureDefinition/qicore-organization" ]
      },
      "identifier": [ {
        "use": "temp",
        "system": "urn:oid:2.16.840.1.113883.4.4",
        "value": "21-3259825"
      } ],
      "active": true,
      "type": [ {
        "coding": [ {
          "system": "http://terminology.hl7.org/CodeSystem/organization-type",
          "code": "pay",
          "display": "Payer"
        } ]
      } ],
      "name": "Blue Cross Blue Shield of Texas",
      "telecom": [ {
        "system": "phone",
        "value": "(+1) 972-766-6900"
      } ],
      "address": [ {
        "use": "billing",
        "type": "postal",
        "line": [ "P.O. Box 660044" ],
        "city": "Dallas",
        "state": "TX",
        "postalCode": "75266-0044",
        "country": "USA"
      } ]
    },
    "request": {
      "method": "PUT",
      "url": "Organization/f82af348-20c9-462e-95b6-3bf47fb04af9"
    }
  }, {
    "fullUrl": "https://madie.cms.gov/Practitioner/489ba207-f1ae-44e5-a09c-f9b6e6b8992d",
    "resource": {
      "resourceType": "Practitioner",
      "id": "489ba207-f1ae-44e5-a09c-f9b6e6b8992d",
      "meta": {
        "profile": [ "http://hl7.org/fhir/us/qicore/StructureDefinition/qicore-practitioner" ]
      },
      "identifier": [ {
        "system": "http://hl7.org/fhir/sid/us-npi",
        "value": "9999999896"
      } ],
      "name": [ {
        "family": "Evil",
        "prefix": [ "Dr" ]
      } ]
    },
    "request": {
      "method": "PUT",
      "url": "Practitioner/489ba207-f1ae-44e5-a09c-f9b6e6b8992d"
    }
  }, {
    "fullUrl": "https://madie.cms.gov/MeasureReport/f3c42147-8fdf-436b-9fa2-88800768ba69",
    "resource": {
      "resourceType": "MeasureReport",
      "id": "f3c42147-8fdf-436b-9fa2-88800768ba69",
      "meta": {
        "profile": [ "http://hl7.org/fhir/us/cqfmeasures/StructureDefinition/test-case-cqfm" ]
      },
      "contained": [ {
        "resourceType": "Parameters",
        "id": "84b810f8-b649-44be-9b42-fe125d295f7e-parameters",
        "parameter": [ {
          "name": "subject",
          "valueString": "29fd4e9e-7f7c-4356-8d72-7eabc8060963"
        } ]
      } ],
      "extension": [ {
        "url": "http://hl7.org/fhir/StructureDefinition/cqf-inputParameters",
        "valueReference": {
          "reference": "#84b810f8-b649-44be-9b42-fe125d295f7e-parameters"
        }
      }, {
        "url": "http://hl7.org/fhir/us/cqfmeasures/StructureDefinition/cqfm-testCaseDescription",
        "valueMarkdown": "\"Diagnosis = Afib/flutter start time > encounter end time\nThis case tests the denominator diagnosis criteria (does not meet criteria). \"\n"
      } ],
      "modifierExtension": [ {
        "url": "http://hl7.org/fhir/us/cqfmeasures/StructureDefinition/cqfm-isTestCase",
        "valueBoolean": true
      } ],
      "status": "complete",
      "type": "individual",
      "measure": "https://madie.cms.gov/Measure/CMS71FHIRSTKAnticoagAFFlutter",
      "period": {
        "start": "2026-01-01",
        "end": "2026-12-31"
      },
      "group": [ {
        "id": "Group_1",
        "population": [ {
          "id": "InitialPopulation_1",
          "code": {
            "coding": [ {
              "system": "http://terminology.hl7.org/CodeSystem/measure-population",
              "code": "initial-population",
              "display": "Initial Population"
            } ]
          },
          "count": 1
        }, {
          "id": "Denominator_1",
          "code": {
            "coding": [ {
              "system": "http://terminology.hl7.org/CodeSystem/measure-population",
              "code": "denominator",
              "display": "Denominator"
            } ]
          },
          "count": 0
        }, {
          "id": "DenominatorExclusion_1",
          "code": {
            "coding": [ {
              "system": "http://terminology.hl7.org/CodeSystem/measure-population",
              "code": "denominator-exclusion",
              "display": "Denominator Exclusion"
            } ]
          },
          "count": 0
        }, {
          "id": "Numerator_1",
          "code": {
            "coding": [ {
              "system": "http://terminology.hl7.org/CodeSystem/measure-population",
              "code": "numerator",
              "display": "Numerator"
            } ]
          },
          "count": 0
        }, {
          "id": "DenominatorException_1",
          "code": {
            "coding": [ {
              "system": "http://terminology.hl7.org/CodeSystem/measure-population",
              "code": "denominator-exception",
              "display": "Denominator Exception"
            } ]
          },
          "count": 0
        } ],
        "measureScore": {
          "value": 0.0
        }
      } ],
      "evaluatedResource": [ {
        "reference": "Patient/29fd4e9e-7f7c-4356-8d72-7eabc8060963"
      }, {
        "reference": "Condition/3aad478f-e9ac-4f1f-a63d-5a14dbbbd609"
      }, {
        "reference": "Encounter/58af8476-4614-4316-9c34-1f1146a509a9"
      }, {
        "reference": "Coverage/9619e6ca-f20f-479b-acd4-f5891c4bf5c5"
      }, {
        "reference": "Condition/23970570-02b0-471e-9e0d-2b2812fd2c09"
      }, {
        "reference": "Claim/d28c672d-1cea-4cb0-9beb-770d0a2ab1c5"
      }, {
        "reference": "Organization/f82af348-20c9-462e-95b6-3bf47fb04af9"
      }, {
        "reference": "Practitioner/489ba207-f1ae-44e5-a09c-f9b6e6b8992d"
      } ]
    },
    "request": {
      "method": "PUT",
      "url": "MeasureReport/f3c42147-8fdf-436b-9fa2-88800768ba69"
    }
  } ]
}