{
  "resourceType": "Bundle",
  "id": "633c9d030968f8012250fc8d",
  "type": "transaction",
  "entry": [ {
    "fullUrl": "https://madie.cms.gov/Patient/e73134ce-ad08-430e-b85e-d61e2d28d709",
    "resource": {
      "resourceType": "Patient",
      "id": "e73134ce-ad08-430e-b85e-d61e2d28d709",
      "meta": {
        "profile": [ "http://hl7.org/fhir/us/qicore/StructureDefinition/qicore-patient" ]
      },
      "text": {
        "status": "generated",
        "div": "<div xmlns=\"http://www.w3.org/1999/xhtml\"><div class=\"hapiHeaderText\">MedDCAnticoaStartsGT_EncEnd <b>NUMERFAIL </b></div><table class=\"hapiPropertyTable\"><tbody><tr><td>Identifier</td><td>6d1b15cdbf79b36506189ad344ceb30d</td></tr><tr><td>Date of birth</td><td><span>23 May 1954</span></td></tr></tbody></table></div>"
      },
      "extension": [ {
        "url": "http://hl7.org/fhir/us/core/StructureDefinition/us-core-race",
        "extension": [ {
          "url": "ombCategory",
          "valueCoding": {
            "system": "urn:oid:2.16.840.1.113883.6.238",
            "code": "1002-5",
            "display": "American Indian or Alaska Native",
            "userSelected": true
          }
        }, {
          "url": "text",
          "valueString": "American Indian or Alaska Native"
        } ]
      }, {
        "url": "http://hl7.org/fhir/us/core/StructureDefinition/us-core-ethnicity",
        "extension": [ {
          "url": "ombCategory",
          "valueCoding": {
            "system": "urn:oid:2.16.840.1.113883.6.238",
            "code": "2135-2",
            "display": "Hispanic or Latino",
            "userSelected": true
          }
        }, {
          "url": "text",
          "valueString": "Hispanic or Latino"
        } ]
      } ],
      "identifier": [ {
        "type": {
          "coding": [ {
            "system": "http://terminology.hl7.org/CodeSystem/v2-0203",
            "code": "MR"
          } ]
        },
        "system": "https://bonnie-fhir.healthit.gov/",
        "value": "633c9d030968f8012250fc8d"
      } ],
      "active": true,
      "name": [ {
        "use": "usual",
        "family": "NUMERFail",
        "given": [ "MedDCAnticoaStartsGT_EncEnd" ]
      } ],
      "gender": "female",
      "birthDate": "1955-05-23"
    },
    "request": {
      "method": "PUT",
      "url": "Patient/e73134ce-ad08-430e-b85e-d61e2d28d709"
    }
  }, {
    "fullUrl": "https://madie.cms.gov/Encounter/0ed7b5a7-c126-4b26-ae68-2279888b611a",
    "resource": {
      "resourceType": "Encounter",
      "id": "0ed7b5a7-c126-4b26-ae68-2279888b611a",
      "meta": {
        "profile": [ "http://hl7.org/fhir/us/qicore/StructureDefinition/qicore-encounter" ]
      },
      "status": "finished",
      "class": {
        "system": "http://terminology.hl7.org/CodeSystem/v3-ActCode",
        "code": "IMP",
        "display": "inpatient encounter"
      },
      "type": [ {
        "coding": [ {
          "system": "http://snomed.info/sct",
          "code": "32485007"
        } ]
      } ],
      "subject": {
        "reference": "Patient/e73134ce-ad08-430e-b85e-d61e2d28d709"
      },
      "period": {
        "start": "2026-11-20T08:00:00.000Z",
        "end": "2026-11-24T08:15:00.000Z"
      },
      "length": {
        "value": 4,
        "unit": "days"
      },
      "reasonReference": [ {
        "reference": "Condition/6643fd7d-b92b-4f1a-85c8-b69c9de14dec"
      } ]
    },
    "request": {
      "method": "PUT",
      "url": "Encounter/0ed7b5a7-c126-4b26-ae68-2279888b611a"
    }
  }, {
    "fullUrl": "https://madie.cms.gov/MedicationRequest/5a790cf6-4ed6-49ce-89d7-913cd226e513",
    "resource": {
      "resourceType": "MedicationRequest",
      "id": "5a790cf6-4ed6-49ce-89d7-913cd226e513",
      "meta": {
        "profile": [ "http://hl7.org/fhir/us/qicore/StructureDefinition/qicore-medicationrequest" ]
      },
      "status": "active",
      "intent": "order",
      "medicationCodeableConcept": {
        "coding": [ {
          "system": "http://www.nlm.nih.gov/research/umls/rxnorm",
          "code": "1037045"
        } ]
      },
      "subject": {
        "reference": "Patient/e73134ce-ad08-430e-b85e-d61e2d28d709"
      },
      "authoredOn": "2026-11-24T08:16:00.000Z",
      "requester": {
        "reference": "Practitioner/example"
      }
    },
    "request": {
      "method": "PUT",
      "url": "MedicationRequest/5a790cf6-4ed6-49ce-89d7-913cd226e513"
    }
  }, {
    "fullUrl": "https://madie.cms.gov/Coverage/f1ed919b-2824-4b14-b368-7e961f37f429",
    "resource": {
      "resourceType": "Coverage",
      "id": "f1ed919b-2824-4b14-b368-7e961f37f429",
      "meta": {
        "profile": [ "http://hl7.org/fhir/us/qicore/StructureDefinition/qicore-coverage" ]
      },
      "status": "active",
      "subscriberId": "523435",
      "beneficiary": {
        "reference": "Patient/e73134ce-ad08-430e-b85e-d61e2d28d709"
      },
      "relationship": {
        "coding": [ {
          "system": "http://terminology.hl7.org/CodeSystem/subscriber-relationship",
          "code": "self"
        } ]
      },
      "payor": [ {
        "reference": "Organization/260b7f16-45d2-48eb-86fe-6033258a7edf"
      } ]
    },
    "request": {
      "method": "PUT",
      "url": "Coverage/f1ed919b-2824-4b14-b368-7e961f37f429"
    }
  }, {
    "fullUrl": "https://madie.cms.gov/Procedure/0758ce96-5f48-49d3-a54f-31d41f9e69a1",
    "resource": {
      "resourceType": "Procedure",
      "id": "0758ce96-5f48-49d3-a54f-31d41f9e69a1",
      "meta": {
        "profile": [ "http://hl7.org/fhir/us/qicore/StructureDefinition/qicore-procedure" ]
      },
      "extension": [ {
        "url": "http://hl7.org/fhir/us/qicore/StructureDefinition/qicore-recorded",
        "valueDateTime": "2026-11-19T13:35:00.000Z"
      } ],
      "status": "completed",
      "code": {
        "coding": [ {
          "system": "http://www.cms.gov/Medicare/Coding/ICD10",
          "code": "02560ZZ"
        }, {
          "system": "http://snomed.info/sct",
          "code": "175095005"
        } ]
      },
      "subject": {
        "reference": "Patient/e73134ce-ad08-430e-b85e-d61e2d28d709"
      },
      "performedPeriod": {
        "start": "2026-11-20T06:00:00.000Z",
        "end": "2026-11-20T07:15:00.000Z"
      }
    },
    "request": {
      "method": "PUT",
      "url": "Procedure/0758ce96-5f48-49d3-a54f-31d41f9e69a1"
    }
  }, {
    "fullUrl": "https://madie.cms.gov/Condition/6643fd7d-b92b-4f1a-85c8-b69c9de14dec",
    "resource": {
      "resourceType": "Condition",
      "id": "6643fd7d-b92b-4f1a-85c8-b69c9de14dec",
      "meta": {
        "profile": [ "http://hl7.org/fhir/us/qicore/StructureDefinition/qicore-condition-encounter-diagnosis" ]
      },
      "clinicalStatus": {
        "coding": [ {
          "system": "http://terminology.hl7.org/CodeSystem/condition-clinical",
          "code": "active"
        } ]
      },
      "verificationStatus": {
        "coding": [ {
          "system": "http://terminology.hl7.org/CodeSystem/condition-ver-status",
          "code": "confirmed"
        } ]
      },
      "category": [ {
        "coding": [ {
          "system": "http://terminology.hl7.org/CodeSystem/condition-category",
          "code": "encounter-diagnosis",
          "display": "Encounter Diagnosis"
        } ]
      } ],
      "code": {
        "coding": [ {
          "system": "http://snomed.info/sct",
          "version": "2021-09",
          "code": "111297002",
          "display": "Nonparalytic stroke (disorder)",
          "userSelected": true
        } ]
      },
      "subject": {
        "reference": "Patient/e73134ce-ad08-430e-b85e-d61e2d28d709"
      },
      "recordedDate": "2026-10-13T08:00:00.000Z"
    },
    "request": {
      "method": "PUT",
      "url": "Condition/6643fd7d-b92b-4f1a-85c8-b69c9de14dec"
    }
  }, {
    "fullUrl": "https://madie.cms.gov/Claim/9d49c117-3176-41f7-aec2-8049ea4f17d6",
    "resource": {
      "resourceType": "Claim",
      "id": "9d49c117-3176-41f7-aec2-8049ea4f17d6",
      "meta": {
        "profile": [ "http://hl7.org/fhir/us/qicore/StructureDefinition/qicore-claim" ]
      },
      "status": "active",
      "type": {
        "coding": [ {
          "system": "http://terminology.hl7.org/CodeSystem/claim-type",
          "code": "institutional"
        } ]
      },
      "use": "claim",
      "patient": {
        "reference": "Patient/e73134ce-ad08-430e-b85e-d61e2d28d709"
      },
      "created": "2026-12-01",
      "provider": {
        "reference": "Practitioner/90824bf3-f3e1-4aec-9bff-ae923efce67b"
      },
      "priority": {
        "coding": [ {
          "system": "http://terminology.hl7.org/CodeSystem/processpriority",
          "code": "normal"
        } ]
      },
      "diagnosis": [ {
        "sequence": 1,
        "diagnosisCodeableConcept": {
          "coding": [ {
            "system": "http://hl7.org/fhir/sid/icd-10-cm",
            "code": "I63.00"
          } ]
        },
        "type": [ {
          "coding": [ {
            "system": "http://terminology.hl7.org/CodeSystem/ex-diagnosistype",
            "code": "principal"
          } ]
        } ]
      } ],
      "insurance": [ {
        "sequence": 1,
        "focal": true,
        "coverage": {
          "reference": "Coverage/5fa041661c76ba66d9959367"
        }
      } ],
      "item": [ {
        "sequence": 1,
        "diagnosisSequence": [ 1 ],
        "productOrService": {
          "coding": [ {
            "system": "http://terminology.hl7.org/CodeSystem/ex-USCLS",
            "code": "99555"
          } ]
        },
        "encounter": [ {
          "reference": "Encounter/0ed7b5a7-c126-4b26-ae68-2279888b611a"
        } ]
      } ]
    },
    "request": {
      "method": "PUT",
      "url": "Claim/9d49c117-3176-41f7-aec2-8049ea4f17d6"
    }
  }, {
    "fullUrl": "https://madie.cms.gov/Organization/260b7f16-45d2-48eb-86fe-6033258a7edf",
    "resource": {
      "resourceType": "Organization",
      "id": "260b7f16-45d2-48eb-86fe-6033258a7edf",
      "meta": {
        "profile": [ "http://hl7.org/fhir/us/qicore/StructureDefinition/qicore-organization" ]
      },
      "identifier": [ {
        "use": "temp",
        "system": "urn:oid:2.16.840.1.113883.4.4",
        "value": "21-3259825"
      } ],
      "active": true,
      "type": [ {
        "coding": [ {
          "system": "http://terminology.hl7.org/CodeSystem/organization-type",
          "code": "pay",
          "display": "Payer"
        } ]
      } ],
      "name": "Blue Cross Blue Shield of Texas",
      "telecom": [ {
        "system": "phone",
        "value": "(+1) 972-766-6900"
      } ],
      "address": [ {
        "use": "billing",
        "type": "postal",
        "line": [ "P.O. Box 660044" ],
        "city": "Dallas",
        "state": "TX",
        "postalCode": "75266-0044",
        "country": "USA"
      } ]
    },
    "request": {
      "method": "PUT",
      "url": "Organization/260b7f16-45d2-48eb-86fe-6033258a7edf"
    }
  }, {
    "fullUrl": "https://madie.cms.gov/Practitioner/90824bf3-f3e1-4aec-9bff-ae923efce67b",
    "resource": {
      "resourceType": "Practitioner",
      "id": "90824bf3-f3e1-4aec-9bff-ae923efce67b",
      "meta": {
        "profile": [ "http://hl7.org/fhir/us/qicore/StructureDefinition/qicore-practitioner" ]
      },
      "identifier": [ {
        "system": "http://hl7.org/fhir/sid/us-npi",
        "value": "9999999896"
      } ],
      "name": [ {
        "family": "Evil",
        "prefix": [ "Dr" ]
      } ]
    },
    "request": {
      "method": "PUT",
      "url": "Practitioner/90824bf3-f3e1-4aec-9bff-ae923efce67b"
    }
  }, {
    "fullUrl": "https://madie.cms.gov/MeasureReport/3fb98181-b373-4815-9f04-719cf0a8d1d6",
    "resource": {
      "resourceType": "MeasureReport",
      "id": "3fb98181-b373-4815-9f04-719cf0a8d1d6",
      "meta": {
        "profile": [ "http://hl7.org/fhir/us/cqfmeasures/StructureDefinition/test-case-cqfm" ]
      },
      "contained": [ {
        "resourceType": "Parameters",
        "id": "6c37fc52-5a1c-4784-9728-ec263b9ef9bb-parameters",
        "parameter": [ {
          "name": "subject",
          "valueString": "e73134ce-ad08-430e-b85e-d61e2d28d709"
        } ]
      } ],
      "extension": [ {
        "url": "http://hl7.org/fhir/StructureDefinition/cqf-inputParameters",
        "valueReference": {
          "reference": "#6c37fc52-5a1c-4784-9728-ec263b9ef9bb-parameters"
        }
      }, {
        "url": "http://hl7.org/fhir/us/cqfmeasures/StructureDefinition/cqfm-testCaseDescription",
        "valueMarkdown": "Pt. discharged on anticoagulant, starts after OccurA\n"
      } ],
      "modifierExtension": [ {
        "url": "http://hl7.org/fhir/us/cqfmeasures/StructureDefinition/cqfm-isTestCase",
        "valueBoolean": true
      } ],
      "status": "complete",
      "type": "individual",
      "measure": "https://madie.cms.gov/Measure/CMS71FHIRSTKAnticoagAFFlutter",
      "period": {
        "start": "2026-01-01",
        "end": "2026-12-31"
      },
      "group": [ {
        "id": "Group_1",
        "population": [ {
          "id": "InitialPopulation_1",
          "code": {
            "coding": [ {
              "system": "http://terminology.hl7.org/CodeSystem/measure-population",
              "code": "initial-population",
              "display": "Initial Population"
            } ]
          },
          "count": 1
        }, {
          "id": "Denominator_1",
          "code": {
            "coding": [ {
              "system": "http://terminology.hl7.org/CodeSystem/measure-population",
              "code": "denominator",
              "display": "Denominator"
            } ]
          },
          "count": 1
        }, {
          "id": "DenominatorExclusion_1",
          "code": {
            "coding": [ {
              "system": "http://terminology.hl7.org/CodeSystem/measure-population",
              "code": "denominator-exclusion",
              "display": "Denominator Exclusion"
            } ]
          },
          "count": 0
        }, {
          "id": "Numerator_1",
          "code": {
            "coding": [ {
              "system": "http://terminology.hl7.org/CodeSystem/measure-population",
              "code": "numerator",
              "display": "Numerator"
            } ]
          },
          "count": 0
        }, {
          "id": "DenominatorException_1",
          "code": {
            "coding": [ {
              "system": "http://terminology.hl7.org/CodeSystem/measure-population",
              "code": "denominator-exception",
              "display": "Denominator Exception"
            } ]
          },
          "count": 0
        } ],
        "measureScore": {
          "value": 0.0
        }
      } ],
      "evaluatedResource": [ {
        "reference": "Patient/e73134ce-ad08-430e-b85e-d61e2d28d709"
      }, {
        "reference": "Encounter/0ed7b5a7-c126-4b26-ae68-2279888b611a"
      }, {
        "reference": "MedicationRequest/5a790cf6-4ed6-49ce-89d7-913cd226e513"
      }, {
        "reference": "Coverage/f1ed919b-2824-4b14-b368-7e961f37f429"
      }, {
        "reference": "Procedure/0758ce96-5f48-49d3-a54f-31d41f9e69a1"
      }, {
        "reference": "Condition/6643fd7d-b92b-4f1a-85c8-b69c9de14dec"
      }, {
        "reference": "Claim/9d49c117-3176-41f7-aec2-8049ea4f17d6"
      }, {
        "reference": "Organization/260b7f16-45d2-48eb-86fe-6033258a7edf"
      }, {
        "reference": "Practitioner/90824bf3-f3e1-4aec-9bff-ae923efce67b"
      } ]
    },
    "request": {
      "method": "PUT",
      "url": "MeasureReport/3fb98181-b373-4815-9f04-719cf0a8d1d6"
    }
  } ]
}