{
  "resourceType": "Bundle",
  "id": "633c9d040968f8012250fcaa",
  "type": "transaction",
  "entry": [ {
    "fullUrl": "https://madie.cms.gov/Patient/c5eb810c-2abd-41ac-9838-81ab77532845",
    "resource": {
      "resourceType": "Patient",
      "id": "c5eb810c-2abd-41ac-9838-81ab77532845",
      "meta": {
        "profile": [ "http://hl7.org/fhir/us/qicore/StructureDefinition/qicore-patient" ]
      },
      "text": {
        "status": "generated",
        "div": "<div xmlns=\"http://www.w3.org/1999/xhtml\"><div class=\"hapiHeaderText\">Anticoag@DC_TestOccurance <b>NUMERPASS </b></div><table class=\"hapiPropertyTable\"><tbody><tr><td>Identifier</td><td>b33e5c40a8266630a8099906ba9c4a7fec43a1f608aad75439f44c686ae32b2a</td></tr><tr><td>Date of birth</td><td><span>23 May 1954</span></td></tr></tbody></table></div>"
      },
      "extension": [ {
        "url": "http://hl7.org/fhir/us/core/StructureDefinition/us-core-race",
        "extension": [ {
          "url": "ombCategory",
          "valueCoding": {
            "system": "urn:oid:2.16.840.1.113883.6.238",
            "code": "1002-5",
            "display": "American Indian or Alaska Native",
            "userSelected": true
          }
        }, {
          "url": "text",
          "valueString": "American Indian or Alaska Native"
        } ]
      }, {
        "url": "http://hl7.org/fhir/us/core/StructureDefinition/us-core-ethnicity",
        "extension": [ {
          "url": "ombCategory",
          "valueCoding": {
            "system": "urn:oid:2.16.840.1.113883.6.238",
            "code": "2135-2",
            "display": "Hispanic or Latino",
            "userSelected": true
          }
        }, {
          "url": "text",
          "valueString": "Hispanic or Latino"
        } ]
      } ],
      "identifier": [ {
        "type": {
          "coding": [ {
            "system": "http://terminology.hl7.org/CodeSystem/v2-0203",
            "code": "MR"
          } ]
        },
        "system": "https://bonnie-fhir.healthit.gov/",
        "value": "633c9d040968f8012250fcaa"
      } ],
      "active": true,
      "name": [ {
        "use": "usual",
        "family": "NUMERPass",
        "given": [ "AnticoagDCTestOccurance" ]
      } ],
      "gender": "female",
      "birthDate": "1955-05-23"
    },
    "request": {
      "method": "PUT",
      "url": "Patient/c5eb810c-2abd-41ac-9838-81ab77532845"
    }
  }, {
    "fullUrl": "https://madie.cms.gov/Encounter/2e8668fd-0956-4150-b428-8d052c08313a",
    "resource": {
      "resourceType": "Encounter",
      "id": "2e8668fd-0956-4150-b428-8d052c08313a",
      "meta": {
        "profile": [ "http://hl7.org/fhir/us/qicore/StructureDefinition/qicore-encounter" ]
      },
      "status": "finished",
      "class": {
        "system": "http://terminology.hl7.org/CodeSystem/v3-ActCode",
        "code": "IMP",
        "display": "inpatient encounter"
      },
      "type": [ {
        "coding": [ {
          "system": "http://snomed.info/sct",
          "code": "183452005"
        } ]
      } ],
      "subject": {
        "reference": "Patient/c5eb810c-2abd-41ac-9838-81ab77532845"
      },
      "period": {
        "start": "2026-11-18T08:00:00.000Z",
        "end": "2026-11-19T08:15:00.000Z"
      },
      "length": {
        "value": 1,
        "unit": "days"
      }
    },
    "request": {
      "method": "PUT",
      "url": "Encounter/2e8668fd-0956-4150-b428-8d052c08313a"
    }
  }, {
    "fullUrl": "https://madie.cms.gov/Encounter/ff0eb262-1138-4534-9022-7f0ca09a7769",
    "resource": {
      "resourceType": "Encounter",
      "id": "ff0eb262-1138-4534-9022-7f0ca09a7769",
      "meta": {
        "profile": [ "http://hl7.org/fhir/us/qicore/StructureDefinition/qicore-encounter" ]
      },
      "status": "finished",
      "class": {
        "system": "http://terminology.hl7.org/CodeSystem/v3-ActCode",
        "code": "IMP",
        "display": "inpatient encounter"
      },
      "type": [ {
        "coding": [ {
          "system": "http://snomed.info/sct",
          "code": "32485007"
        } ]
      } ],
      "subject": {
        "reference": "Patient/c5eb810c-2abd-41ac-9838-81ab77532845"
      },
      "period": {
        "start": "2026-11-20T08:00:00.000Z",
        "end": "2026-11-24T08:15:00.000Z"
      },
      "length": {
        "value": 4,
        "unit": "days"
      },
      "reasonReference": [ {
        "reference": "Condition/6b6a6b12-c5f8-4299-9c17-5d5b579681f6"
      } ]
    },
    "request": {
      "method": "PUT",
      "url": "Encounter/ff0eb262-1138-4534-9022-7f0ca09a7769"
    }
  }, {
    "fullUrl": "https://madie.cms.gov/Claim/d8e2c8a6-6b1a-4347-8f95-2befaebb39e9",
    "resource": {
      "resourceType": "Claim",
      "id": "d8e2c8a6-6b1a-4347-8f95-2befaebb39e9",
      "meta": {
        "profile": [ "http://hl7.org/fhir/us/qicore/StructureDefinition/qicore-claim" ]
      },
      "status": "active",
      "type": {
        "coding": [ {
          "system": "http://terminology.hl7.org/CodeSystem/claim-type",
          "code": "institutional"
        } ]
      },
      "use": "claim",
      "patient": {
        "reference": "Patient/c5eb810c-2abd-41ac-9838-81ab77532845"
      },
      "created": "2026-12-01",
      "provider": {
        "reference": "Practitioner/1c9dcd43-7aac-414d-9081-221c53ab47cc"
      },
      "priority": {
        "coding": [ {
          "system": "http://terminology.hl7.org/CodeSystem/processpriority",
          "code": "normal"
        } ]
      },
      "diagnosis": [ {
        "sequence": 1,
        "diagnosisCodeableConcept": {
          "coding": [ {
            "system": "http://hl7.org/fhir/sid/icd-10-cm",
            "code": "I63.00"
          } ]
        },
        "type": [ {
          "coding": [ {
            "system": "http://terminology.hl7.org/CodeSystem/ex-diagnosistype",
            "code": "principal"
          } ]
        } ]
      } ],
      "insurance": [ {
        "sequence": 1,
        "focal": true,
        "coverage": {
          "reference": "Coverage/5fa041661c76ba66d9959367"
        }
      } ],
      "item": [ {
        "sequence": 1,
        "diagnosisSequence": [ 1 ],
        "productOrService": {
          "coding": [ {
            "system": "http://terminology.hl7.org/CodeSystem/ex-USCLS",
            "code": "99555"
          } ]
        },
        "encounter": [ {
          "reference": "Encounter/ff0eb262-1138-4534-9022-7f0ca09a7769"
        } ]
      } ]
    },
    "request": {
      "method": "PUT",
      "url": "Claim/d8e2c8a6-6b1a-4347-8f95-2befaebb39e9"
    }
  }, {
    "fullUrl": "https://madie.cms.gov/MedicationRequest/9a0e5d24-7fa5-4516-ac00-aaa4605eebef",
    "resource": {
      "resourceType": "MedicationRequest",
      "id": "9a0e5d24-7fa5-4516-ac00-aaa4605eebef",
      "meta": {
        "profile": [ "http://hl7.org/fhir/us/qicore/StructureDefinition/qicore-medicationrequest" ]
      },
      "status": "active",
      "intent": "order",
      "category": [ {
        "coding": [ {
          "system": "http://terminology.hl7.org/CodeSystem/medicationrequest-category",
          "code": "discharge",
          "display": "Discharge",
          "userSelected": true
        } ]
      } ],
      "medicationCodeableConcept": {
        "coding": [ {
          "system": "http://www.nlm.nih.gov/research/umls/rxnorm",
          "code": "308351"
        } ]
      },
      "subject": {
        "reference": "Patient/c5eb810c-2abd-41ac-9838-81ab77532845"
      },
      "authoredOn": "2026-11-24T08:00:00.000Z",
      "requester": {
        "reference": "Practitioner/example"
      }
    },
    "request": {
      "method": "PUT",
      "url": "MedicationRequest/9a0e5d24-7fa5-4516-ac00-aaa4605eebef"
    }
  }, {
    "fullUrl": "https://madie.cms.gov/Coverage/b3039e02-9779-4539-851c-b7f003397636",
    "resource": {
      "resourceType": "Coverage",
      "id": "b3039e02-9779-4539-851c-b7f003397636",
      "meta": {
        "profile": [ "http://hl7.org/fhir/us/qicore/StructureDefinition/qicore-coverage" ]
      },
      "status": "active",
      "subscriberId": "523435",
      "beneficiary": {
        "reference": "Patient/c5eb810c-2abd-41ac-9838-81ab77532845"
      },
      "relationship": {
        "coding": [ {
          "system": "http://terminology.hl7.org/CodeSystem/subscriber-relationship",
          "code": "self"
        } ]
      },
      "payor": [ {
        "reference": "Organization/82a6d6bb-d782-49ee-b711-a4e1b21881f8"
      } ]
    },
    "request": {
      "method": "PUT",
      "url": "Coverage/b3039e02-9779-4539-851c-b7f003397636"
    }
  }, {
    "fullUrl": "https://madie.cms.gov/Procedure/a126748f-3b11-429f-bbc2-0363beea282a",
    "resource": {
      "resourceType": "Procedure",
      "id": "a126748f-3b11-429f-bbc2-0363beea282a",
      "meta": {
        "profile": [ "http://hl7.org/fhir/us/qicore/StructureDefinition/qicore-procedure" ]
      },
      "extension": [ {
        "url": "http://hl7.org/fhir/us/qicore/StructureDefinition/qicore-recorded",
        "valueDateTime": "2026-11-19T13:35:00.000Z"
      } ],
      "status": "completed",
      "code": {
        "coding": [ {
          "system": "http://www.cms.gov/Medicare/Coding/ICD10",
          "code": "02560ZZ"
        }, {
          "system": "http://snomed.info/sct",
          "code": "175095005"
        } ]
      },
      "subject": {
        "reference": "Patient/c5eb810c-2abd-41ac-9838-81ab77532845"
      },
      "performedPeriod": {
        "start": "2026-11-20T06:00:00.000Z",
        "end": "2026-11-20T07:15:00.000Z"
      }
    },
    "request": {
      "method": "PUT",
      "url": "Procedure/a126748f-3b11-429f-bbc2-0363beea282a"
    }
  }, {
    "fullUrl": "https://madie.cms.gov/Condition/6b6a6b12-c5f8-4299-9c17-5d5b579681f6",
    "resource": {
      "resourceType": "Condition",
      "id": "6b6a6b12-c5f8-4299-9c17-5d5b579681f6",
      "meta": {
        "profile": [ "http://hl7.org/fhir/us/qicore/StructureDefinition/qicore-condition-encounter-diagnosis" ]
      },
      "clinicalStatus": {
        "coding": [ {
          "system": "http://terminology.hl7.org/CodeSystem/condition-clinical",
          "code": "active"
        } ]
      },
      "verificationStatus": {
        "coding": [ {
          "system": "http://terminology.hl7.org/CodeSystem/condition-ver-status",
          "code": "confirmed"
        } ]
      },
      "category": [ {
        "coding": [ {
          "system": "http://terminology.hl7.org/CodeSystem/condition-category",
          "code": "encounter-diagnosis",
          "display": "Encounter Diagnosis"
        } ]
      } ],
      "code": {
        "coding": [ {
          "system": "http://snomed.info/sct",
          "version": "2021-09",
          "code": "111297002",
          "display": "Nonparalytic stroke (disorder)",
          "userSelected": true
        } ]
      },
      "subject": {
        "reference": "Patient/c5eb810c-2abd-41ac-9838-81ab77532845"
      },
      "recordedDate": "2026-10-13T08:00:00.000Z"
    },
    "request": {
      "method": "PUT",
      "url": "Condition/6b6a6b12-c5f8-4299-9c17-5d5b579681f6"
    }
  }, {
    "fullUrl": "https://madie.cms.gov/Organization/82a6d6bb-d782-49ee-b711-a4e1b21881f8",
    "resource": {
      "resourceType": "Organization",
      "id": "82a6d6bb-d782-49ee-b711-a4e1b21881f8",
      "meta": {
        "profile": [ "http://hl7.org/fhir/us/qicore/StructureDefinition/qicore-organization" ]
      },
      "identifier": [ {
        "use": "temp",
        "system": "urn:oid:2.16.840.1.113883.4.4",
        "value": "21-3259825"
      } ],
      "active": true,
      "type": [ {
        "coding": [ {
          "system": "http://terminology.hl7.org/CodeSystem/organization-type",
          "code": "pay",
          "display": "Payer"
        } ]
      } ],
      "name": "Blue Cross Blue Shield of Texas",
      "telecom": [ {
        "system": "phone",
        "value": "(+1) 972-766-6900"
      } ],
      "address": [ {
        "use": "billing",
        "type": "postal",
        "line": [ "P.O. Box 660044" ],
        "city": "Dallas",
        "state": "TX",
        "postalCode": "75266-0044",
        "country": "USA"
      } ]
    },
    "request": {
      "method": "PUT",
      "url": "Organization/82a6d6bb-d782-49ee-b711-a4e1b21881f8"
    }
  }, {
    "fullUrl": "https://madie.cms.gov/Practitioner/1c9dcd43-7aac-414d-9081-221c53ab47cc",
    "resource": {
      "resourceType": "Practitioner",
      "id": "1c9dcd43-7aac-414d-9081-221c53ab47cc",
      "meta": {
        "profile": [ "http://hl7.org/fhir/us/qicore/StructureDefinition/qicore-practitioner" ]
      },
      "identifier": [ {
        "system": "http://hl7.org/fhir/sid/us-npi",
        "value": "9999999896"
      } ],
      "name": [ {
        "family": "Evil",
        "prefix": [ "Dr" ]
      } ]
    },
    "request": {
      "method": "PUT",
      "url": "Practitioner/1c9dcd43-7aac-414d-9081-221c53ab47cc"
    }
  }, {
    "fullUrl": "https://madie.cms.gov/MeasureReport/77c510f9-811f-4af9-8774-95ce60949de9",
    "resource": {
      "resourceType": "MeasureReport",
      "id": "77c510f9-811f-4af9-8774-95ce60949de9",
      "meta": {
        "profile": [ "http://hl7.org/fhir/us/cqfmeasures/StructureDefinition/test-case-cqfm" ]
      },
      "contained": [ {
        "resourceType": "Parameters",
        "id": "05c7aba7-1318-4582-b7ee-fc952be89a81-parameters",
        "parameter": [ {
          "name": "subject",
          "valueString": "c5eb810c-2abd-41ac-9838-81ab77532845"
        } ]
      } ],
      "extension": [ {
        "url": "http://hl7.org/fhir/StructureDefinition/cqf-inputParameters",
        "valueReference": {
          "reference": "#05c7aba7-1318-4582-b7ee-fc952be89a81-parameters"
        }
      }, {
        "url": "http://hl7.org/fhir/us/cqfmeasures/StructureDefinition/cqfm-testCaseDescription",
        "valueMarkdown": "Pt. discharged on anticoagulant, starts during OccurA not OccurB\n"
      } ],
      "modifierExtension": [ {
        "url": "http://hl7.org/fhir/us/cqfmeasures/StructureDefinition/cqfm-isTestCase",
        "valueBoolean": true
      } ],
      "status": "complete",
      "type": "individual",
      "measure": "https://madie.cms.gov/Measure/CMS71FHIRSTKAnticoagAFFlutter",
      "period": {
        "start": "2026-01-01",
        "end": "2026-12-31"
      },
      "group": [ {
        "id": "Group_1",
        "population": [ {
          "id": "InitialPopulation_1",
          "code": {
            "coding": [ {
              "system": "http://terminology.hl7.org/CodeSystem/measure-population",
              "code": "initial-population",
              "display": "Initial Population"
            } ]
          },
          "count": 1
        }, {
          "id": "Denominator_1",
          "code": {
            "coding": [ {
              "system": "http://terminology.hl7.org/CodeSystem/measure-population",
              "code": "denominator",
              "display": "Denominator"
            } ]
          },
          "count": 1
        }, {
          "id": "DenominatorExclusion_1",
          "code": {
            "coding": [ {
              "system": "http://terminology.hl7.org/CodeSystem/measure-population",
              "code": "denominator-exclusion",
              "display": "Denominator Exclusion"
            } ]
          },
          "count": 0
        }, {
          "id": "Numerator_1",
          "code": {
            "coding": [ {
              "system": "http://terminology.hl7.org/CodeSystem/measure-population",
              "code": "numerator",
              "display": "Numerator"
            } ]
          },
          "count": 1
        }, {
          "id": "DenominatorException_1",
          "code": {
            "coding": [ {
              "system": "http://terminology.hl7.org/CodeSystem/measure-population",
              "code": "denominator-exception",
              "display": "Denominator Exception"
            } ]
          },
          "count": 0
        } ],
        "measureScore": {
          "value": 0.0
        }
      } ],
      "evaluatedResource": [ {
        "reference": "Patient/c5eb810c-2abd-41ac-9838-81ab77532845"
      }, {
        "reference": "Encounter/2e8668fd-0956-4150-b428-8d052c08313a"
      }, {
        "reference": "Encounter/ff0eb262-1138-4534-9022-7f0ca09a7769"
      }, {
        "reference": "Claim/d8e2c8a6-6b1a-4347-8f95-2befaebb39e9"
      }, {
        "reference": "MedicationRequest/9a0e5d24-7fa5-4516-ac00-aaa4605eebef"
      }, {
        "reference": "Coverage/b3039e02-9779-4539-851c-b7f003397636"
      }, {
        "reference": "Procedure/a126748f-3b11-429f-bbc2-0363beea282a"
      }, {
        "reference": "Condition/6b6a6b12-c5f8-4299-9c17-5d5b579681f6"
      }, {
        "reference": "Organization/82a6d6bb-d782-49ee-b711-a4e1b21881f8"
      }, {
        "reference": "Practitioner/1c9dcd43-7aac-414d-9081-221c53ab47cc"
      } ]
    },
    "request": {
      "method": "PUT",
      "url": "MeasureReport/77c510f9-811f-4af9-8774-95ce60949de9"
    }
  } ]
}