{
  "resourceType": "Bundle",
  "id": "633c9d040968f8012250fcab",
  "type": "transaction",
  "entry": [ {
    "fullUrl": "https://madie.cms.gov/Patient/18912918-19e8-4d17-8160-71849eaede4b",
    "resource": {
      "resourceType": "Patient",
      "id": "18912918-19e8-4d17-8160-71849eaede4b",
      "meta": {
        "profile": [ "http://hl7.org/fhir/us/qicore/StructureDefinition/qicore-patient" ]
      },
      "text": {
        "status": "generated",
        "div": "<div xmlns=\"http://www.w3.org/1999/xhtml\"><div class=\"hapiHeaderText\">EncPrinDx=Afib/Flutter Rank2 <b>IPPFAIL </b></div><table class=\"hapiPropertyTable\"><tbody><tr><td>Identifier</td><td>2038d8a42effee0cae92f8c6fde4ebe8</td></tr><tr><td>Date of birth</td><td><span>01 December 1960</span></td></tr></tbody></table></div>"
      },
      "extension": [ {
        "url": "http://hl7.org/fhir/us/core/StructureDefinition/us-core-race",
        "extension": [ {
          "url": "ombCategory",
          "valueCoding": {
            "system": "urn:oid:2.16.840.1.113883.6.238",
            "code": "1002-5",
            "display": "American Indian or Alaska Native",
            "userSelected": true
          }
        }, {
          "url": "text",
          "valueString": "American Indian or Alaska Native"
        } ]
      }, {
        "url": "http://hl7.org/fhir/us/core/StructureDefinition/us-core-ethnicity",
        "extension": [ {
          "url": "ombCategory",
          "valueCoding": {
            "system": "urn:oid:2.16.840.1.113883.6.238",
            "code": "2135-2",
            "display": "Hispanic or Latino",
            "userSelected": true
          }
        }, {
          "url": "text",
          "valueString": "Hispanic or Latino"
        } ]
      } ],
      "identifier": [ {
        "type": {
          "coding": [ {
            "system": "http://terminology.hl7.org/CodeSystem/v2-0203",
            "code": "MR"
          } ]
        },
        "system": "https://bonnie-fhir.healthit.gov/",
        "value": "633c9d040968f8012250fcab"
      } ],
      "active": true,
      "name": [ {
        "use": "usual",
        "family": "IPPFail",
        "given": [ "EncPrinDxEQAfibOrFlutter" ]
      } ],
      "gender": "male",
      "birthDate": "1961-12-01"
    },
    "request": {
      "method": "PUT",
      "url": "Patient/18912918-19e8-4d17-8160-71849eaede4b"
    }
  }, {
    "fullUrl": "https://madie.cms.gov/Encounter/75fb0e02-26be-4a75-bb8b-73b7c2f0846a",
    "resource": {
      "resourceType": "Encounter",
      "id": "75fb0e02-26be-4a75-bb8b-73b7c2f0846a",
      "meta": {
        "profile": [ "http://hl7.org/fhir/us/qicore/StructureDefinition/qicore-encounter" ]
      },
      "status": "finished",
      "class": {
        "system": "http://terminology.hl7.org/CodeSystem/v3-ActCode",
        "code": "IMP",
        "display": "inpatient encounter"
      },
      "type": [ {
        "coding": [ {
          "system": "http://snomed.info/sct",
          "code": "32485007"
        } ]
      } ],
      "subject": {
        "reference": "Patient/18912918-19e8-4d17-8160-71849eaede4b"
      },
      "period": {
        "start": "2026-02-08T08:00:00.000Z",
        "end": "2026-02-10T08:15:00.000Z"
      },
      "length": {
        "value": 2,
        "unit": "days"
      },
      "reasonReference": [ {
        "reference": "Condition/2793e38d-b98d-448b-b638-765e1fb7bb2e"
      } ]
    },
    "request": {
      "method": "PUT",
      "url": "Encounter/75fb0e02-26be-4a75-bb8b-73b7c2f0846a"
    }
  }, {
    "fullUrl": "https://madie.cms.gov/Claim/6ef19766-e7b6-44c9-89ca-bee194e886fb",
    "resource": {
      "resourceType": "Claim",
      "id": "6ef19766-e7b6-44c9-89ca-bee194e886fb",
      "meta": {
        "profile": [ "http://hl7.org/fhir/us/qicore/StructureDefinition/qicore-claim" ]
      },
      "status": "active",
      "type": {
        "coding": [ {
          "system": "http://terminology.hl7.org/CodeSystem/claim-type",
          "code": "institutional"
        } ]
      },
      "use": "claim",
      "patient": {
        "reference": "Patient/18912918-19e8-4d17-8160-71849eaede4b"
      },
      "created": "2026-12-01",
      "provider": {
        "reference": "Practitioner/c7004130-0928-41b8-a37d-058623870785"
      },
      "priority": {
        "coding": [ {
          "system": "http://terminology.hl7.org/CodeSystem/processpriority",
          "code": "normal"
        } ]
      },
      "diagnosis": [ {
        "sequence": 1,
        "diagnosisCodeableConcept": {
          "coding": [ {
            "system": "http://hl7.org/fhir/sid/icd-10-cm",
            "code": "i48.0"
          } ]
        },
        "type": [ {
          "coding": [ {
            "system": "http://terminology.hl7.org/CodeSystem/ex-diagnosistype",
            "code": "principal"
          } ]
        } ]
      } ],
      "insurance": [ {
        "sequence": 1,
        "focal": true,
        "coverage": {
          "reference": "Coverage/5fa041661c76ba66d9959367"
        }
      } ],
      "item": [ {
        "sequence": 1,
        "diagnosisSequence": [ 1 ],
        "productOrService": {
          "coding": [ {
            "system": "http://terminology.hl7.org/CodeSystem/ex-USCLS",
            "code": "99555"
          } ]
        },
        "encounter": [ {
          "reference": "Encounter/75fb0e02-26be-4a75-bb8b-73b7c2f0846a"
        } ]
      } ]
    },
    "request": {
      "method": "PUT",
      "url": "Claim/6ef19766-e7b6-44c9-89ca-bee194e886fb"
    }
  }, {
    "fullUrl": "https://madie.cms.gov/Coverage/36e8b372-3d24-43b5-8a93-4b5c72f205e6",
    "resource": {
      "resourceType": "Coverage",
      "id": "36e8b372-3d24-43b5-8a93-4b5c72f205e6",
      "meta": {
        "profile": [ "http://hl7.org/fhir/us/qicore/StructureDefinition/qicore-coverage" ]
      },
      "status": "active",
      "subscriberId": "523435",
      "beneficiary": {
        "reference": "Patient/18912918-19e8-4d17-8160-71849eaede4b"
      },
      "relationship": {
        "coding": [ {
          "system": "http://terminology.hl7.org/CodeSystem/subscriber-relationship",
          "code": "self"
        } ]
      },
      "payor": [ {
        "reference": "Organization/41a8797e-5e73-4fc1-9d71-1f3cccb4bb68"
      } ]
    },
    "request": {
      "method": "PUT",
      "url": "Coverage/36e8b372-3d24-43b5-8a93-4b5c72f205e6"
    }
  }, {
    "fullUrl": "https://madie.cms.gov/Condition/2793e38d-b98d-448b-b638-765e1fb7bb2e",
    "resource": {
      "resourceType": "Condition",
      "id": "2793e38d-b98d-448b-b638-765e1fb7bb2e",
      "meta": {
        "profile": [ "http://hl7.org/fhir/us/qicore/StructureDefinition/qicore-condition-problems-health-concerns" ]
      },
      "clinicalStatus": {
        "coding": [ {
          "system": "http://terminology.hl7.org/CodeSystem/condition-clinical",
          "code": "active"
        } ]
      },
      "verificationStatus": {
        "coding": [ {
          "system": "http://terminology.hl7.org/CodeSystem/condition-ver-status",
          "code": "confirmed"
        } ]
      },
      "category": [ {
        "coding": [ {
          "system": "http://terminology.hl7.org/CodeSystem/condition-category",
          "code": "problem-list-item"
        } ]
      } ],
      "code": {
        "coding": [ {
          "system": "http://snomed.info/sct",
          "version": "2021-09",
          "code": "120041000119109",
          "display": "Atrial fibrillation with rapid ventricular response (disorder)",
          "userSelected": true
        } ]
      },
      "subject": {
        "reference": "Patient/18912918-19e8-4d17-8160-71849eaede4b"
      },
      "recordedDate": "2026-10-13T08:00:00.000Z"
    },
    "request": {
      "method": "PUT",
      "url": "Condition/2793e38d-b98d-448b-b638-765e1fb7bb2e"
    }
  }, {
    "fullUrl": "https://madie.cms.gov/Organization/41a8797e-5e73-4fc1-9d71-1f3cccb4bb68",
    "resource": {
      "resourceType": "Organization",
      "id": "41a8797e-5e73-4fc1-9d71-1f3cccb4bb68",
      "meta": {
        "profile": [ "http://hl7.org/fhir/us/qicore/StructureDefinition/qicore-organization" ]
      },
      "identifier": [ {
        "use": "temp",
        "system": "urn:oid:2.16.840.1.113883.4.4",
        "value": "21-3259825"
      } ],
      "active": true,
      "type": [ {
        "coding": [ {
          "system": "http://terminology.hl7.org/CodeSystem/organization-type",
          "code": "pay",
          "display": "Payer"
        } ]
      } ],
      "name": "Blue Cross Blue Shield of Texas",
      "telecom": [ {
        "system": "phone",
        "value": "(+1) 972-766-6900"
      } ],
      "address": [ {
        "use": "billing",
        "type": "postal",
        "line": [ "P.O. Box 660044" ],
        "city": "Dallas",
        "state": "TX",
        "postalCode": "75266-0044",
        "country": "USA"
      } ]
    },
    "request": {
      "method": "PUT",
      "url": "Organization/41a8797e-5e73-4fc1-9d71-1f3cccb4bb68"
    }
  }, {
    "fullUrl": "https://madie.cms.gov/Practitioner/c7004130-0928-41b8-a37d-058623870785",
    "resource": {
      "resourceType": "Practitioner",
      "id": "c7004130-0928-41b8-a37d-058623870785",
      "meta": {
        "profile": [ "http://hl7.org/fhir/us/qicore/StructureDefinition/qicore-practitioner" ]
      },
      "identifier": [ {
        "system": "http://hl7.org/fhir/sid/us-npi",
        "value": "9999999896"
      } ],
      "name": [ {
        "family": "Evil",
        "prefix": [ "Dr" ]
      } ]
    },
    "request": {
      "method": "PUT",
      "url": "Practitioner/c7004130-0928-41b8-a37d-058623870785"
    }
  }, {
    "fullUrl": "https://madie.cms.gov/MeasureReport/889918d9-4e62-4f53-aa7a-b5a47a4ccc53",
    "resource": {
      "resourceType": "MeasureReport",
      "id": "889918d9-4e62-4f53-aa7a-b5a47a4ccc53",
      "meta": {
        "profile": [ "http://hl7.org/fhir/us/cqfmeasures/StructureDefinition/test-case-cqfm" ]
      },
      "contained": [ {
        "resourceType": "Parameters",
        "id": "ac20a30b-964e-4c18-84ff-c8d0f73e3c2d-parameters",
        "parameter": [ {
          "name": "subject",
          "valueString": "18912918-19e8-4d17-8160-71849eaede4b"
        } ]
      } ],
      "extension": [ {
        "url": "http://hl7.org/fhir/StructureDefinition/cqf-inputParameters",
        "valueReference": {
          "reference": "#ac20a30b-964e-4c18-84ff-c8d0f73e3c2d-parameters"
        }
      }, {
        "url": "http://hl7.org/fhir/us/cqfmeasures/StructureDefinition/cqfm-testCaseDescription",
        "valueMarkdown": "Principal diagnosis not in value set\n"
      } ],
      "modifierExtension": [ {
        "url": "http://hl7.org/fhir/us/cqfmeasures/StructureDefinition/cqfm-isTestCase",
        "valueBoolean": true
      } ],
      "status": "complete",
      "type": "individual",
      "measure": "https://madie.cms.gov/Measure/CMS71FHIRSTKAnticoagAFFlutter",
      "period": {
        "start": "2026-01-01",
        "end": "2026-12-31"
      },
      "group": [ {
        "id": "Group_1",
        "population": [ {
          "id": "InitialPopulation_1",
          "code": {
            "coding": [ {
              "system": "http://terminology.hl7.org/CodeSystem/measure-population",
              "code": "initial-population",
              "display": "Initial Population"
            } ]
          },
          "count": 0
        }, {
          "id": "Denominator_1",
          "code": {
            "coding": [ {
              "system": "http://terminology.hl7.org/CodeSystem/measure-population",
              "code": "denominator",
              "display": "Denominator"
            } ]
          },
          "count": 0
        }, {
          "id": "DenominatorExclusion_1",
          "code": {
            "coding": [ {
              "system": "http://terminology.hl7.org/CodeSystem/measure-population",
              "code": "denominator-exclusion",
              "display": "Denominator Exclusion"
            } ]
          },
          "count": 0
        }, {
          "id": "Numerator_1",
          "code": {
            "coding": [ {
              "system": "http://terminology.hl7.org/CodeSystem/measure-population",
              "code": "numerator",
              "display": "Numerator"
            } ]
          },
          "count": 0
        }, {
          "id": "DenominatorException_1",
          "code": {
            "coding": [ {
              "system": "http://terminology.hl7.org/CodeSystem/measure-population",
              "code": "denominator-exception",
              "display": "Denominator Exception"
            } ]
          },
          "count": 0
        } ],
        "measureScore": {
          "value": 0.0
        }
      } ],
      "evaluatedResource": [ {
        "reference": "Patient/18912918-19e8-4d17-8160-71849eaede4b"
      }, {
        "reference": "Encounter/75fb0e02-26be-4a75-bb8b-73b7c2f0846a"
      }, {
        "reference": "Claim/6ef19766-e7b6-44c9-89ca-bee194e886fb"
      }, {
        "reference": "Coverage/36e8b372-3d24-43b5-8a93-4b5c72f205e6"
      }, {
        "reference": "Condition/2793e38d-b98d-448b-b638-765e1fb7bb2e"
      }, {
        "reference": "Organization/41a8797e-5e73-4fc1-9d71-1f3cccb4bb68"
      }, {
        "reference": "Practitioner/c7004130-0928-41b8-a37d-058623870785"
      } ]
    },
    "request": {
      "method": "PUT",
      "url": "MeasureReport/889918d9-4e62-4f53-aa7a-b5a47a4ccc53"
    }
  } ]
}