{
  "resourceType": "Bundle",
  "id": "633c9d030968f8012250fc79",
  "type": "transaction",
  "entry": [ {
    "fullUrl": "https://madie.cms.gov/Patient/1dbcccc2-895d-46a7-b28a-bf936fc7978a",
    "resource": {
      "resourceType": "Patient",
      "id": "1dbcccc2-895d-46a7-b28a-bf936fc7978a",
      "meta": {
        "profile": [ "http://hl7.org/fhir/us/qicore/StructureDefinition/qicore-patient" ]
      },
      "text": {
        "status": "generated",
        "div": "<div xmlns=\"http://www.w3.org/1999/xhtml\"><div class=\"hapiHeaderText\">ProcAtrialAblEncStartRelePer <b>DENOMFAIL </b></div><table class=\"hapiPropertyTable\"><tbody><tr><td>Identifier</td><td>1ebc7a8ec0c65913b7018969c7b50ead</td></tr><tr><td>Date of birth</td><td><span>01 December 1960</span></td></tr></tbody></table></div>"
      },
      "extension": [ {
        "url": "http://hl7.org/fhir/us/core/StructureDefinition/us-core-race",
        "extension": [ {
          "url": "ombCategory",
          "valueCoding": {
            "system": "urn:oid:2.16.840.1.113883.6.238",
            "code": "1002-5",
            "display": "American Indian or Alaska Native",
            "userSelected": true
          }
        }, {
          "url": "text",
          "valueString": "American Indian or Alaska Native"
        } ]
      }, {
        "url": "http://hl7.org/fhir/us/core/StructureDefinition/us-core-ethnicity",
        "extension": [ {
          "url": "ombCategory",
          "valueCoding": {
            "system": "urn:oid:2.16.840.1.113883.6.238",
            "code": "2135-2",
            "display": "Hispanic or Latino",
            "userSelected": true
          }
        }, {
          "url": "text",
          "valueString": "Hispanic or Latino"
        } ]
      } ],
      "identifier": [ {
        "type": {
          "coding": [ {
            "system": "http://terminology.hl7.org/CodeSystem/v2-0203",
            "code": "MR"
          } ]
        },
        "system": "https://bonnie-fhir.healthit.gov/",
        "value": "633c9d030968f8012250fc79"
      } ],
      "active": true,
      "name": [ {
        "use": "usual",
        "family": "DENOMFail",
        "given": [ "ProcAtrialAblEncStartRelePer" ]
      } ],
      "gender": "male",
      "birthDate": "1961-12-01"
    },
    "request": {
      "method": "PUT",
      "url": "Patient/1dbcccc2-895d-46a7-b28a-bf936fc7978a"
    }
  }, {
    "fullUrl": "https://madie.cms.gov/Encounter/f319fb65-fbfc-411c-81f9-0b34b8245b79",
    "resource": {
      "resourceType": "Encounter",
      "id": "f319fb65-fbfc-411c-81f9-0b34b8245b79",
      "meta": {
        "profile": [ "http://hl7.org/fhir/us/qicore/StructureDefinition/qicore-encounter" ]
      },
      "status": "finished",
      "class": {
        "system": "http://terminology.hl7.org/CodeSystem/v3-ActCode",
        "code": "IMP",
        "display": "inpatient encounter"
      },
      "type": [ {
        "coding": [ {
          "system": "http://snomed.info/sct",
          "code": "32485007"
        } ]
      } ],
      "subject": {
        "reference": "Patient/1dbcccc2-895d-46a7-b28a-bf936fc7978a"
      },
      "period": {
        "start": "2026-02-08T08:00:00.000Z",
        "end": "2026-02-10T08:15:00.000Z"
      },
      "length": {
        "value": 2,
        "unit": "days"
      }
    },
    "request": {
      "method": "PUT",
      "url": "Encounter/f319fb65-fbfc-411c-81f9-0b34b8245b79"
    }
  }, {
    "fullUrl": "https://madie.cms.gov/Coverage/9092e3cd-15b8-432b-a77c-f6906d378f68",
    "resource": {
      "resourceType": "Coverage",
      "id": "9092e3cd-15b8-432b-a77c-f6906d378f68",
      "meta": {
        "profile": [ "http://hl7.org/fhir/us/qicore/StructureDefinition/qicore-coverage" ]
      },
      "status": "active",
      "subscriberId": "523435",
      "beneficiary": {
        "reference": "Patient/1dbcccc2-895d-46a7-b28a-bf936fc7978a"
      },
      "relationship": {
        "coding": [ {
          "system": "http://terminology.hl7.org/CodeSystem/subscriber-relationship",
          "code": "self"
        } ]
      },
      "payor": [ {
        "reference": "Organization/e4cdca2d-a8e6-4ee1-b29d-c6d9fc884928"
      } ]
    },
    "request": {
      "method": "PUT",
      "url": "Coverage/9092e3cd-15b8-432b-a77c-f6906d378f68"
    }
  }, {
    "fullUrl": "https://madie.cms.gov/Procedure/25efc17c-089e-4835-b3b6-5171fa936eb2",
    "resource": {
      "resourceType": "Procedure",
      "id": "25efc17c-089e-4835-b3b6-5171fa936eb2",
      "meta": {
        "profile": [ "http://hl7.org/fhir/us/qicore/StructureDefinition/qicore-procedure" ]
      },
      "extension": [ {
        "url": "http://hl7.org/fhir/us/qicore/StructureDefinition/qicore-recorded",
        "valueDateTime": "2026-11-19T13:35:00.000Z"
      } ],
      "status": "completed",
      "code": {
        "coding": [ {
          "system": "http://www.cms.gov/Medicare/Coding/ICD10",
          "code": "02560ZZ"
        }, {
          "system": "http://snomed.info/sct",
          "code": "175095005"
        } ]
      },
      "subject": {
        "reference": "Patient/1dbcccc2-895d-46a7-b28a-bf936fc7978a"
      },
      "performedPeriod": {
        "start": "2026-02-08T08:00:00.000Z",
        "end": "2026-02-10T08:15:00.000Z"
      }
    },
    "request": {
      "method": "PUT",
      "url": "Procedure/25efc17c-089e-4835-b3b6-5171fa936eb2"
    }
  }, {
    "fullUrl": "https://madie.cms.gov/Condition/3ac66989-490c-4c34-8683-2d253bc80df8",
    "resource": {
      "resourceType": "Condition",
      "id": "3ac66989-490c-4c34-8683-2d253bc80df8",
      "meta": {
        "profile": [ "http://hl7.org/fhir/us/qicore/StructureDefinition/qicore-condition-encounter-diagnosis" ]
      },
      "clinicalStatus": {
        "coding": [ {
          "system": "http://terminology.hl7.org/CodeSystem/condition-clinical",
          "code": "active"
        } ]
      },
      "verificationStatus": {
        "coding": [ {
          "system": "http://terminology.hl7.org/CodeSystem/condition-ver-status",
          "code": "confirmed"
        } ]
      },
      "category": [ {
        "coding": [ {
          "system": "http://terminology.hl7.org/CodeSystem/condition-category",
          "code": "encounter-diagnosis",
          "display": "Encounter Diagnosis"
        } ]
      } ],
      "code": {
        "coding": [ {
          "system": "http://snomed.info/sct",
          "version": "2021-09",
          "code": "111297002",
          "display": "Nonparalytic stroke (disorder)",
          "userSelected": true
        } ]
      },
      "subject": {
        "reference": "Patient/1dbcccc2-895d-46a7-b28a-bf936fc7978a"
      },
      "recordedDate": "2026-10-13T08:00:00.000Z"
    },
    "request": {
      "method": "PUT",
      "url": "Condition/3ac66989-490c-4c34-8683-2d253bc80df8"
    }
  }, {
    "fullUrl": "https://madie.cms.gov/Claim/1acf692a-307c-4408-b8c3-91ac69f44656",
    "resource": {
      "resourceType": "Claim",
      "id": "1acf692a-307c-4408-b8c3-91ac69f44656",
      "meta": {
        "profile": [ "http://hl7.org/fhir/us/qicore/StructureDefinition/qicore-claim" ]
      },
      "status": "active",
      "type": {
        "coding": [ {
          "system": "http://terminology.hl7.org/CodeSystem/claim-type",
          "code": "institutional"
        } ]
      },
      "use": "claim",
      "patient": {
        "reference": "Patient/1dbcccc2-895d-46a7-b28a-bf936fc7978a"
      },
      "created": "2026-12-01",
      "provider": {
        "reference": "Practitioner/7f826d9c-123b-498f-b154-242ae74429bf"
      },
      "priority": {
        "coding": [ {
          "system": "http://terminology.hl7.org/CodeSystem/processpriority",
          "code": "normal"
        } ]
      },
      "diagnosis": [ {
        "sequence": 1,
        "diagnosisCodeableConcept": {
          "coding": [ {
            "system": "http://hl7.org/fhir/sid/icd-10-cm",
            "code": "I63.00"
          } ]
        },
        "type": [ {
          "coding": [ {
            "system": "http://terminology.hl7.org/CodeSystem/ex-diagnosistype",
            "code": "principal"
          } ]
        } ]
      } ],
      "insurance": [ {
        "sequence": 1,
        "focal": true,
        "coverage": {
          "reference": "Coverage/5fa041661c76ba66d9959367"
        }
      } ],
      "item": [ {
        "sequence": 1,
        "diagnosisSequence": [ 1 ],
        "productOrService": {
          "coding": [ {
            "system": "http://terminology.hl7.org/CodeSystem/ex-USCLS",
            "code": "99555"
          } ]
        },
        "encounter": [ {
          "reference": "Encounter/f319fb65-fbfc-411c-81f9-0b34b8245b79"
        } ]
      } ]
    },
    "request": {
      "method": "PUT",
      "url": "Claim/1acf692a-307c-4408-b8c3-91ac69f44656"
    }
  }, {
    "fullUrl": "https://madie.cms.gov/Organization/e4cdca2d-a8e6-4ee1-b29d-c6d9fc884928",
    "resource": {
      "resourceType": "Organization",
      "id": "e4cdca2d-a8e6-4ee1-b29d-c6d9fc884928",
      "meta": {
        "profile": [ "http://hl7.org/fhir/us/qicore/StructureDefinition/qicore-organization" ]
      },
      "identifier": [ {
        "use": "temp",
        "system": "urn:oid:2.16.840.1.113883.4.4",
        "value": "21-3259825"
      } ],
      "active": true,
      "type": [ {
        "coding": [ {
          "system": "http://terminology.hl7.org/CodeSystem/organization-type",
          "code": "pay",
          "display": "Payer"
        } ]
      } ],
      "name": "Blue Cross Blue Shield of Texas",
      "telecom": [ {
        "system": "phone",
        "value": "(+1) 972-766-6900"
      } ],
      "address": [ {
        "use": "billing",
        "type": "postal",
        "line": [ "P.O. Box 660044" ],
        "city": "Dallas",
        "state": "TX",
        "postalCode": "75266-0044",
        "country": "USA"
      } ]
    },
    "request": {
      "method": "PUT",
      "url": "Organization/e4cdca2d-a8e6-4ee1-b29d-c6d9fc884928"
    }
  }, {
    "fullUrl": "https://madie.cms.gov/Practitioner/7f826d9c-123b-498f-b154-242ae74429bf",
    "resource": {
      "resourceType": "Practitioner",
      "id": "7f826d9c-123b-498f-b154-242ae74429bf",
      "meta": {
        "profile": [ "http://hl7.org/fhir/us/qicore/StructureDefinition/qicore-practitioner" ]
      },
      "identifier": [ {
        "system": "http://hl7.org/fhir/sid/us-npi",
        "value": "9999999896"
      } ],
      "name": [ {
        "family": "Evil",
        "prefix": [ "Dr" ]
      } ]
    },
    "request": {
      "method": "PUT",
      "url": "Practitioner/7f826d9c-123b-498f-b154-242ae74429bf"
    }
  }, {
    "fullUrl": "https://madie.cms.gov/MeasureReport/4afbd8fe-97eb-493c-8227-e71c40a74633",
    "resource": {
      "resourceType": "MeasureReport",
      "id": "4afbd8fe-97eb-493c-8227-e71c40a74633",
      "meta": {
        "profile": [ "http://hl7.org/fhir/us/cqfmeasures/StructureDefinition/test-case-cqfm" ]
      },
      "contained": [ {
        "resourceType": "Parameters",
        "id": "926b05d3-546f-4f33-8f1a-5e6dbfab6e75-parameters",
        "parameter": [ {
          "name": "subject",
          "valueString": "1dbcccc2-895d-46a7-b28a-bf936fc7978a"
        } ]
      } ],
      "extension": [ {
        "url": "http://hl7.org/fhir/StructureDefinition/cqf-inputParameters",
        "valueReference": {
          "reference": "#926b05d3-546f-4f33-8f1a-5e6dbfab6e75-parameters"
        }
      }, {
        "url": "http://hl7.org/fhir/us/cqfmeasures/StructureDefinition/cqfm-testCaseDescription",
        "valueMarkdown": "Procedure performed Atrial Ablation starts at the start of the encounter using our relevant period\n"
      } ],
      "modifierExtension": [ {
        "url": "http://hl7.org/fhir/us/cqfmeasures/StructureDefinition/cqfm-isTestCase",
        "valueBoolean": true
      } ],
      "status": "complete",
      "type": "individual",
      "measure": "https://madie.cms.gov/Measure/CMS71FHIRSTKAnticoagAFFlutter",
      "period": {
        "start": "2026-01-01",
        "end": "2026-12-31"
      },
      "group": [ {
        "id": "Group_1",
        "population": [ {
          "id": "InitialPopulation_1",
          "code": {
            "coding": [ {
              "system": "http://terminology.hl7.org/CodeSystem/measure-population",
              "code": "initial-population",
              "display": "Initial Population"
            } ]
          },
          "count": 1
        }, {
          "id": "Denominator_1",
          "code": {
            "coding": [ {
              "system": "http://terminology.hl7.org/CodeSystem/measure-population",
              "code": "denominator",
              "display": "Denominator"
            } ]
          },
          "count": 0
        }, {
          "id": "DenominatorExclusion_1",
          "code": {
            "coding": [ {
              "system": "http://terminology.hl7.org/CodeSystem/measure-population",
              "code": "denominator-exclusion",
              "display": "Denominator Exclusion"
            } ]
          },
          "count": 0
        }, {
          "id": "Numerator_1",
          "code": {
            "coding": [ {
              "system": "http://terminology.hl7.org/CodeSystem/measure-population",
              "code": "numerator",
              "display": "Numerator"
            } ]
          },
          "count": 0
        }, {
          "id": "DenominatorException_1",
          "code": {
            "coding": [ {
              "system": "http://terminology.hl7.org/CodeSystem/measure-population",
              "code": "denominator-exception",
              "display": "Denominator Exception"
            } ]
          },
          "count": 0
        } ],
        "measureScore": {
          "value": 0.0
        }
      } ],
      "evaluatedResource": [ {
        "reference": "Patient/1dbcccc2-895d-46a7-b28a-bf936fc7978a"
      }, {
        "reference": "Encounter/f319fb65-fbfc-411c-81f9-0b34b8245b79"
      }, {
        "reference": "Coverage/9092e3cd-15b8-432b-a77c-f6906d378f68"
      }, {
        "reference": "Procedure/25efc17c-089e-4835-b3b6-5171fa936eb2"
      }, {
        "reference": "Condition/3ac66989-490c-4c34-8683-2d253bc80df8"
      }, {
        "reference": "Claim/1acf692a-307c-4408-b8c3-91ac69f44656"
      }, {
        "reference": "Organization/e4cdca2d-a8e6-4ee1-b29d-c6d9fc884928"
      }, {
        "reference": "Practitioner/7f826d9c-123b-498f-b154-242ae74429bf"
      } ]
    },
    "request": {
      "method": "PUT",
      "url": "MeasureReport/4afbd8fe-97eb-493c-8227-e71c40a74633"
    }
  } ]
}