{
  "resourceType": "Bundle",
  "id": "633c9d030968f8012250fc83",
  "type": "transaction",
  "entry": [ {
    "fullUrl": "https://madie.cms.gov/Patient/2ed389dd-10d2-49b1-966b-f8bada7df530",
    "resource": {
      "resourceType": "Patient",
      "id": "2ed389dd-10d2-49b1-966b-f8bada7df530",
      "meta": {
        "profile": [ "http://hl7.org/fhir/us/qicore/StructureDefinition/qicore-patient" ]
      },
      "text": {
        "status": "generated",
        "div": "<div xmlns=\"http://www.w3.org/1999/xhtml\"><div class=\"hapiHeaderText\">CMOdurEnc_ED=1hrNoObsBFEnc <b>DENEXPASS </b></div><table class=\"hapiPropertyTable\"><tbody><tr><td>Identifier</td><td>c13349494c162d88448cb3ad5c0d4a05</td></tr><tr><td>Date of birth</td><td><span>18 September 1985</span></td></tr></tbody></table></div>"
      },
      "extension": [ {
        "url": "http://hl7.org/fhir/us/core/StructureDefinition/us-core-race",
        "extension": [ {
          "url": "ombCategory",
          "valueCoding": {
            "system": "urn:oid:2.16.840.1.113883.6.238",
            "code": "1002-5",
            "display": "American Indian or Alaska Native",
            "userSelected": true
          }
        }, {
          "url": "text",
          "valueString": "American Indian or Alaska Native"
        } ]
      }, {
        "url": "http://hl7.org/fhir/us/core/StructureDefinition/us-core-ethnicity",
        "extension": [ {
          "url": "ombCategory",
          "valueCoding": {
            "system": "urn:oid:2.16.840.1.113883.6.238",
            "code": "2135-2",
            "display": "Hispanic or Latino",
            "userSelected": true
          }
        }, {
          "url": "text",
          "valueString": "Hispanic or Latino"
        } ]
      } ],
      "identifier": [ {
        "type": {
          "coding": [ {
            "system": "http://terminology.hl7.org/CodeSystem/v2-0203",
            "code": "MR"
          } ]
        },
        "system": "https://bonnie-fhir.healthit.gov/",
        "value": "633c9d030968f8012250fc83"
      } ],
      "active": true,
      "name": [ {
        "use": "usual",
        "family": "DENEXPass",
        "given": [ "CMOdurEnc_ED=1hrNoObsBFEnc" ]
      } ],
      "gender": "female",
      "birthDate": "1986-09-18"
    },
    "request": {
      "method": "PUT",
      "url": "Patient/2ed389dd-10d2-49b1-966b-f8bada7df530"
    }
  }, {
    "fullUrl": "https://madie.cms.gov/Condition/8229905c-2bcc-41cf-b3ab-7c7de9ba82f5",
    "resource": {
      "resourceType": "Condition",
      "id": "8229905c-2bcc-41cf-b3ab-7c7de9ba82f5",
      "meta": {
        "profile": [ "http://hl7.org/fhir/us/qicore/StructureDefinition/qicore-condition-encounter-diagnosis" ]
      },
      "clinicalStatus": {
        "coding": [ {
          "system": "http://terminology.hl7.org/CodeSystem/condition-clinical",
          "code": "inactive"
        } ]
      },
      "verificationStatus": {
        "coding": [ {
          "system": "http://terminology.hl7.org/CodeSystem/condition-ver-status",
          "code": "confirmed"
        } ]
      },
      "category": [ {
        "coding": [ {
          "system": "http://terminology.hl7.org/CodeSystem/condition-category",
          "code": "encounter-diagnosis",
          "display": "Encounter Diagnosis"
        } ]
      } ],
      "code": {
        "coding": [ {
          "system": "http://hl7.org/fhir/sid/icd-10-cm",
          "code": "I48.20"
        }, {
          "system": "http://hl7.org/fhir/sid/icd-10-cm",
          "code": "I48.0"
        }, {
          "system": "http://snomed.info/sct",
          "code": "5370000"
        } ]
      },
      "subject": {
        "reference": "Patient/2ed389dd-10d2-49b1-966b-f8bada7df530"
      },
      "onsetDateTime": "2026-10-01T09:00:00.000Z",
      "abatementDateTime": "2026-10-12T00:15:00.000Z"
    },
    "request": {
      "method": "PUT",
      "url": "Condition/8229905c-2bcc-41cf-b3ab-7c7de9ba82f5"
    }
  }, {
    "fullUrl": "https://madie.cms.gov/Encounter/941ae290-dc5f-4ec3-b9f0-439892161f5f",
    "resource": {
      "resourceType": "Encounter",
      "id": "941ae290-dc5f-4ec3-b9f0-439892161f5f",
      "meta": {
        "profile": [ "http://hl7.org/fhir/us/qicore/StructureDefinition/qicore-encounter" ]
      },
      "status": "finished",
      "class": {
        "system": "http://terminology.hl7.org/CodeSystem/v3-ActCode",
        "code": "EMER",
        "display": "emergency"
      },
      "type": [ {
        "coding": [ {
          "system": "http://snomed.info/sct",
          "code": "4525004"
        } ]
      } ],
      "subject": {
        "reference": "Patient/2ed389dd-10d2-49b1-966b-f8bada7df530"
      },
      "period": {
        "start": "2026-10-01T08:00:00.000Z",
        "end": "2026-10-01T09:00:00.000Z"
      },
      "length": {
        "value": 0,
        "unit": "days"
      }
    },
    "request": {
      "method": "PUT",
      "url": "Encounter/941ae290-dc5f-4ec3-b9f0-439892161f5f"
    }
  }, {
    "fullUrl": "https://madie.cms.gov/Encounter/f3c0fb41-20f6-4c6f-8209-8dff49a2387a",
    "resource": {
      "resourceType": "Encounter",
      "id": "f3c0fb41-20f6-4c6f-8209-8dff49a2387a",
      "meta": {
        "profile": [ "http://hl7.org/fhir/us/qicore/StructureDefinition/qicore-encounter" ]
      },
      "status": "finished",
      "class": {
        "system": "http://terminology.hl7.org/CodeSystem/v3-ActCode",
        "code": "IMP",
        "display": "inpatient encounter"
      },
      "type": [ {
        "coding": [ {
          "system": "http://snomed.info/sct",
          "code": "32485007"
        } ]
      } ],
      "subject": {
        "reference": "Patient/2ed389dd-10d2-49b1-966b-f8bada7df530"
      },
      "period": {
        "start": "2026-10-01T09:00:00.000Z",
        "end": "2026-10-12T00:15:00.000Z"
      },
      "length": {
        "value": 11,
        "unit": "days"
      },
      "reasonReference": [ {
        "reference": "Condition/8229905c-2bcc-41cf-b3ab-7c7de9ba82f5"
      } ]
    },
    "request": {
      "method": "PUT",
      "url": "Encounter/f3c0fb41-20f6-4c6f-8209-8dff49a2387a"
    }
  }, {
    "fullUrl": "https://madie.cms.gov/ServiceRequest/eabf3fd9-7324-4a25-9ca3-ffa8448e87c1",
    "resource": {
      "resourceType": "ServiceRequest",
      "id": "eabf3fd9-7324-4a25-9ca3-ffa8448e87c1",
      "meta": {
        "profile": [ "http://hl7.org/fhir/us/qicore/StructureDefinition/qicore-servicerequest" ]
      },
      "status": "active",
      "intent": "order",
      "code": {
        "coding": [ {
          "system": "http://snomed.info/sct",
          "code": "133918004"
        } ]
      },
      "subject": {
        "reference": "Patient/2ed389dd-10d2-49b1-966b-f8bada7df530"
      },
      "authoredOn": "2026-10-01T09:15:00.000Z"
    },
    "request": {
      "method": "PUT",
      "url": "ServiceRequest/eabf3fd9-7324-4a25-9ca3-ffa8448e87c1"
    }
  }, {
    "fullUrl": "https://madie.cms.gov/Claim/97eb2f49-ffcc-4d5f-8880-fce093917b75",
    "resource": {
      "resourceType": "Claim",
      "id": "97eb2f49-ffcc-4d5f-8880-fce093917b75",
      "meta": {
        "profile": [ "http://hl7.org/fhir/us/qicore/StructureDefinition/qicore-claim" ]
      },
      "status": "active",
      "type": {
        "coding": [ {
          "system": "http://terminology.hl7.org/CodeSystem/claim-type",
          "code": "institutional"
        } ]
      },
      "use": "claim",
      "patient": {
        "reference": "Patient/2ed389dd-10d2-49b1-966b-f8bada7df530"
      },
      "created": "2026-12-01",
      "provider": {
        "reference": "Practitioner/84f0f90e-4d89-458b-8b9f-d95940c43946"
      },
      "priority": {
        "coding": [ {
          "system": "http://terminology.hl7.org/CodeSystem/processpriority",
          "code": "normal"
        } ]
      },
      "diagnosis": [ {
        "sequence": 1,
        "diagnosisCodeableConcept": {
          "coding": [ {
            "system": "http://hl7.org/fhir/sid/icd-10-cm",
            "code": "I63.00"
          } ]
        },
        "type": [ {
          "coding": [ {
            "system": "http://terminology.hl7.org/CodeSystem/ex-diagnosistype",
            "code": "principal"
          } ]
        } ]
      } ],
      "insurance": [ {
        "sequence": 1,
        "focal": true,
        "coverage": {
          "reference": "Coverage/5fa041661c76ba66d9959367"
        }
      } ],
      "item": [ {
        "sequence": 1,
        "diagnosisSequence": [ 1 ],
        "productOrService": {
          "coding": [ {
            "system": "http://terminology.hl7.org/CodeSystem/ex-USCLS",
            "code": "99555"
          } ]
        },
        "encounter": [ {
          "reference": "Encounter/f3c0fb41-20f6-4c6f-8209-8dff49a2387a"
        } ]
      } ]
    },
    "request": {
      "method": "PUT",
      "url": "Claim/97eb2f49-ffcc-4d5f-8880-fce093917b75"
    }
  }, {
    "fullUrl": "https://madie.cms.gov/Coverage/6e643b26-e9b8-4710-9d10-8d00fee257e1",
    "resource": {
      "resourceType": "Coverage",
      "id": "6e643b26-e9b8-4710-9d10-8d00fee257e1",
      "status": "active",
      "subscriberId": "523435",
      "beneficiary": {
        "reference": "Patient/2ed389dd-10d2-49b1-966b-f8bada7df530"
      },
      "relationship": {
        "coding": [ {
          "system": "http://terminology.hl7.org/CodeSystem/subscriber-relationship",
          "code": "self"
        } ]
      },
      "period": {
        "start": "1986-09-18T08:00:00.000Z"
      },
      "payor": [ {
        "reference": "Organization/56ad65c3-d64e-456c-9f70-f7d2cc89003d"
      } ]
    },
    "request": {
      "method": "PUT",
      "url": "Coverage/6e643b26-e9b8-4710-9d10-8d00fee257e1"
    }
  }, {
    "fullUrl": "https://madie.cms.gov/Condition/788337ce-e1fb-4871-a66d-e17b6a6e57c8",
    "resource": {
      "resourceType": "Condition",
      "id": "788337ce-e1fb-4871-a66d-e17b6a6e57c8",
      "meta": {
        "profile": [ "http://hl7.org/fhir/us/qicore/StructureDefinition/qicore-condition-encounter-diagnosis" ]
      },
      "clinicalStatus": {
        "coding": [ {
          "system": "http://terminology.hl7.org/CodeSystem/condition-clinical",
          "code": "active"
        } ]
      },
      "verificationStatus": {
        "coding": [ {
          "system": "http://terminology.hl7.org/CodeSystem/condition-ver-status",
          "code": "confirmed"
        } ]
      },
      "category": [ {
        "coding": [ {
          "system": "http://terminology.hl7.org/CodeSystem/condition-category",
          "code": "encounter-diagnosis",
          "display": "Encounter Diagnosis"
        } ]
      } ],
      "code": {
        "coding": [ {
          "system": "http://snomed.info/sct",
          "version": "2021-09",
          "code": "111297002",
          "display": "Nonparalytic stroke (disorder)",
          "userSelected": true
        } ]
      },
      "subject": {
        "reference": "Patient/2ed389dd-10d2-49b1-966b-f8bada7df530"
      },
      "recordedDate": "2026-10-13T08:00:00.000Z"
    },
    "request": {
      "method": "PUT",
      "url": "Condition/788337ce-e1fb-4871-a66d-e17b6a6e57c8"
    }
  }, {
    "fullUrl": "https://madie.cms.gov/Organization/56ad65c3-d64e-456c-9f70-f7d2cc89003d",
    "resource": {
      "resourceType": "Organization",
      "id": "56ad65c3-d64e-456c-9f70-f7d2cc89003d",
      "meta": {
        "profile": [ "http://hl7.org/fhir/us/qicore/StructureDefinition/qicore-organization" ]
      },
      "identifier": [ {
        "use": "temp",
        "system": "urn:oid:2.16.840.1.113883.4.4",
        "value": "21-3259825"
      } ],
      "active": true,
      "type": [ {
        "coding": [ {
          "system": "http://terminology.hl7.org/CodeSystem/organization-type",
          "code": "pay",
          "display": "Payer"
        } ]
      } ],
      "name": "Blue Cross Blue Shield of Texas",
      "telecom": [ {
        "system": "phone",
        "value": "(+1) 972-766-6900"
      } ],
      "address": [ {
        "use": "billing",
        "type": "postal",
        "line": [ "P.O. Box 660044" ],
        "city": "Dallas",
        "state": "TX",
        "postalCode": "75266-0044",
        "country": "USA"
      } ]
    },
    "request": {
      "method": "PUT",
      "url": "Organization/56ad65c3-d64e-456c-9f70-f7d2cc89003d"
    }
  }, {
    "fullUrl": "https://madie.cms.gov/Practitioner/84f0f90e-4d89-458b-8b9f-d95940c43946",
    "resource": {
      "resourceType": "Practitioner",
      "id": "84f0f90e-4d89-458b-8b9f-d95940c43946",
      "meta": {
        "profile": [ "http://hl7.org/fhir/us/qicore/StructureDefinition/qicore-practitioner" ]
      },
      "identifier": [ {
        "system": "http://hl7.org/fhir/sid/us-npi",
        "value": "9999999896"
      } ],
      "name": [ {
        "family": "Evil",
        "prefix": [ "Dr" ]
      } ]
    },
    "request": {
      "method": "PUT",
      "url": "Practitioner/84f0f90e-4d89-458b-8b9f-d95940c43946"
    }
  }, {
    "fullUrl": "https://madie.cms.gov/MeasureReport/75f5e6bf-11e5-4d20-af18-8e0d1f4c8ead",
    "resource": {
      "resourceType": "MeasureReport",
      "id": "75f5e6bf-11e5-4d20-af18-8e0d1f4c8ead",
      "meta": {
        "profile": [ "http://hl7.org/fhir/us/cqfmeasures/StructureDefinition/test-case-cqfm" ]
      },
      "contained": [ {
        "resourceType": "Parameters",
        "id": "b6b050e8-9805-4a95-8666-119ff0017967-parameters",
        "parameter": [ {
          "name": "subject",
          "valueString": "2ed389dd-10d2-49b1-966b-f8bada7df530"
        } ]
      } ],
      "extension": [ {
        "url": "http://hl7.org/fhir/StructureDefinition/cqf-inputParameters",
        "valueReference": {
          "reference": "#b6b050e8-9805-4a95-8666-119ff0017967-parameters"
        }
      }, {
        "url": "http://hl7.org/fhir/us/cqfmeasures/StructureDefinition/cqfm-testCaseDescription",
        "valueMarkdown": "Patient receives CMO during inpatient encounter. ED starts 60 minutes before inpatient encounter start. No Observation. Testing HospitalizationWithObservation function.\n"
      } ],
      "modifierExtension": [ {
        "url": "http://hl7.org/fhir/us/cqfmeasures/StructureDefinition/cqfm-isTestCase",
        "valueBoolean": true
      } ],
      "status": "complete",
      "type": "individual",
      "measure": "https://madie.cms.gov/Measure/CMS71FHIRSTKAnticoagAFFlutter",
      "period": {
        "start": "2026-01-01",
        "end": "2026-12-31"
      },
      "group": [ {
        "id": "Group_1",
        "population": [ {
          "id": "InitialPopulation_1",
          "code": {
            "coding": [ {
              "system": "http://terminology.hl7.org/CodeSystem/measure-population",
              "code": "initial-population",
              "display": "Initial Population"
            } ]
          },
          "count": 1
        }, {
          "id": "Denominator_1",
          "code": {
            "coding": [ {
              "system": "http://terminology.hl7.org/CodeSystem/measure-population",
              "code": "denominator",
              "display": "Denominator"
            } ]
          },
          "count": 1
        }, {
          "id": "DenominatorExclusion_1",
          "code": {
            "coding": [ {
              "system": "http://terminology.hl7.org/CodeSystem/measure-population",
              "code": "denominator-exclusion",
              "display": "Denominator Exclusion"
            } ]
          },
          "count": 1
        }, {
          "id": "Numerator_1",
          "code": {
            "coding": [ {
              "system": "http://terminology.hl7.org/CodeSystem/measure-population",
              "code": "numerator",
              "display": "Numerator"
            } ]
          },
          "count": 0
        }, {
          "id": "DenominatorException_1",
          "code": {
            "coding": [ {
              "system": "http://terminology.hl7.org/CodeSystem/measure-population",
              "code": "denominator-exception",
              "display": "Denominator Exception"
            } ]
          },
          "count": 0
        } ],
        "measureScore": {
          "value": 0.0
        }
      } ],
      "evaluatedResource": [ {
        "reference": "Patient/2ed389dd-10d2-49b1-966b-f8bada7df530"
      }, {
        "reference": "Condition/8229905c-2bcc-41cf-b3ab-7c7de9ba82f5"
      }, {
        "reference": "Encounter/941ae290-dc5f-4ec3-b9f0-439892161f5f"
      }, {
        "reference": "Encounter/f3c0fb41-20f6-4c6f-8209-8dff49a2387a"
      }, {
        "reference": "ServiceRequest/eabf3fd9-7324-4a25-9ca3-ffa8448e87c1"
      }, {
        "reference": "Claim/97eb2f49-ffcc-4d5f-8880-fce093917b75"
      }, {
        "reference": "Coverage/6e643b26-e9b8-4710-9d10-8d00fee257e1"
      }, {
        "reference": "Condition/788337ce-e1fb-4871-a66d-e17b6a6e57c8"
      }, {
        "reference": "Organization/56ad65c3-d64e-456c-9f70-f7d2cc89003d"
      }, {
        "reference": "Practitioner/84f0f90e-4d89-458b-8b9f-d95940c43946"
      } ]
    },
    "request": {
      "method": "PUT",
      "url": "MeasureReport/75f5e6bf-11e5-4d20-af18-8e0d1f4c8ead"
    }
  } ]
}