{
  "resourceType": "Bundle",
  "id": "633c9d030968f8012250fc86",
  "type": "transaction",
  "entry": [ {
    "fullUrl": "https://madie.cms.gov/Patient/d9dc15b7-bf03-4b72-8dd5-3e4db21f052d",
    "resource": {
      "resourceType": "Patient",
      "id": "d9dc15b7-bf03-4b72-8dd5-3e4db21f052d",
      "meta": {
        "profile": [ "http://hl7.org/fhir/us/qicore/StructureDefinition/qicore-patient" ]
      },
      "text": {
        "status": "generated",
        "div": "<div xmlns=\"http://www.w3.org/1999/xhtml\"><div class=\"hapiHeaderText\">CMOdurObs_ED&lt;1hrObs=1hrBFEnc <b>DENEXPASS </b></div><table class=\"hapiPropertyTable\"><tbody><tr><td>Identifier</td><td>d7110924d65a531d7c4ff727f0066c38</td></tr><tr><td>Date of birth</td><td><span>18 September 1985</span></td></tr></tbody></table></div>"
      },
      "extension": [ {
        "url": "http://hl7.org/fhir/us/core/StructureDefinition/us-core-race",
        "extension": [ {
          "url": "ombCategory",
          "valueCoding": {
            "system": "urn:oid:2.16.840.1.113883.6.238",
            "code": "1002-5",
            "display": "American Indian or Alaska Native",
            "userSelected": true
          }
        }, {
          "url": "text",
          "valueString": "American Indian or Alaska Native"
        } ]
      }, {
        "url": "http://hl7.org/fhir/us/core/StructureDefinition/us-core-ethnicity",
        "extension": [ {
          "url": "ombCategory",
          "valueCoding": {
            "system": "urn:oid:2.16.840.1.113883.6.238",
            "code": "2135-2",
            "display": "Hispanic or Latino",
            "userSelected": true
          }
        }, {
          "url": "text",
          "valueString": "Hispanic or Latino"
        } ]
      } ],
      "identifier": [ {
        "type": {
          "coding": [ {
            "system": "http://terminology.hl7.org/CodeSystem/v2-0203",
            "code": "MR"
          } ]
        },
        "system": "https://bonnie-fhir.healthit.gov/",
        "value": "633c9d030968f8012250fc86"
      } ],
      "active": true,
      "name": [ {
        "use": "usual",
        "family": "DENEXPass",
        "given": [ "CMOdurObsED1hrObs1hrBFEnc" ]
      } ],
      "gender": "female",
      "birthDate": "1986-09-18"
    },
    "request": {
      "method": "PUT",
      "url": "Patient/d9dc15b7-bf03-4b72-8dd5-3e4db21f052d"
    }
  }, {
    "fullUrl": "https://madie.cms.gov/Claim/826af6b9-3f8b-423f-8518-dab673fdd125",
    "resource": {
      "resourceType": "Claim",
      "id": "826af6b9-3f8b-423f-8518-dab673fdd125",
      "meta": {
        "profile": [ "http://hl7.org/fhir/us/qicore/StructureDefinition/qicore-claim" ]
      },
      "status": "active",
      "type": {
        "coding": [ {
          "system": "http://terminology.hl7.org/CodeSystem/claim-type",
          "code": "institutional"
        } ]
      },
      "use": "claim",
      "patient": {
        "reference": "Patient/d9dc15b7-bf03-4b72-8dd5-3e4db21f052d"
      },
      "created": "2026-12-01",
      "provider": {
        "reference": "Practitioner/5e6ef2fb-5d50-4957-bade-e4b15683ffef"
      },
      "priority": {
        "coding": [ {
          "system": "http://terminology.hl7.org/CodeSystem/processpriority",
          "code": "normal"
        } ]
      },
      "diagnosis": [ {
        "sequence": 1,
        "diagnosisCodeableConcept": {
          "coding": [ {
            "system": "http://hl7.org/fhir/sid/icd-10-cm",
            "code": "I63.00"
          } ]
        },
        "type": [ {
          "coding": [ {
            "system": "http://terminology.hl7.org/CodeSystem/ex-diagnosistype",
            "code": "principal"
          } ]
        } ]
      } ],
      "insurance": [ {
        "sequence": 1,
        "focal": true,
        "coverage": {
          "reference": "Coverage/5fa041661c76ba66d9959367"
        }
      } ],
      "item": [ {
        "sequence": 1,
        "diagnosisSequence": [ 1 ],
        "productOrService": {
          "coding": [ {
            "system": "http://terminology.hl7.org/CodeSystem/ex-USCLS",
            "code": "99555"
          } ]
        },
        "encounter": [ {
          "reference": "Encounter/f8646b57-7ac8-465d-a96e-063a345ef0f2"
        } ]
      } ]
    },
    "request": {
      "method": "PUT",
      "url": "Claim/826af6b9-3f8b-423f-8518-dab673fdd125"
    }
  }, {
    "fullUrl": "https://madie.cms.gov/Condition/f5e2d5e0-427e-4c87-9d90-c59e9674bbc0",
    "resource": {
      "resourceType": "Condition",
      "id": "f5e2d5e0-427e-4c87-9d90-c59e9674bbc0",
      "meta": {
        "profile": [ "http://hl7.org/fhir/us/qicore/StructureDefinition/qicore-condition-problems-health-concerns" ]
      },
      "clinicalStatus": {
        "coding": [ {
          "system": "http://terminology.hl7.org/CodeSystem/condition-clinical",
          "code": "inactive"
        } ]
      },
      "verificationStatus": {
        "coding": [ {
          "system": "http://terminology.hl7.org/CodeSystem/condition-ver-status",
          "code": "confirmed"
        } ]
      },
      "category": [ {
        "coding": [ {
          "system": "http://terminology.hl7.org/CodeSystem/condition-category",
          "code": "problem-list-item"
        } ]
      } ],
      "code": {
        "coding": [ {
          "system": "http://hl7.org/fhir/sid/icd-10-cm",
          "code": "I48.20"
        }, {
          "system": "http://hl7.org/fhir/sid/icd-10-cm",
          "code": "I48.0"
        }, {
          "system": "http://snomed.info/sct",
          "code": "5370000"
        } ]
      },
      "subject": {
        "reference": "Patient/d9dc15b7-bf03-4b72-8dd5-3e4db21f052d"
      },
      "onsetDateTime": "2026-09-30T09:00:00.000Z",
      "abatementDateTime": "2026-10-12T00:15:00.000Z"
    },
    "request": {
      "method": "PUT",
      "url": "Condition/f5e2d5e0-427e-4c87-9d90-c59e9674bbc0"
    }
  }, {
    "fullUrl": "https://madie.cms.gov/Encounter/a705c184-faee-4ad9-b878-e6c4d8faa3da",
    "resource": {
      "resourceType": "Encounter",
      "id": "a705c184-faee-4ad9-b878-e6c4d8faa3da",
      "meta": {
        "profile": [ "http://hl7.org/fhir/us/qicore/StructureDefinition/qicore-encounter" ]
      },
      "status": "finished",
      "class": {
        "system": "http://terminology.hl7.org/CodeSystem/v3-ActCode",
        "code": "EMER",
        "display": "emergency"
      },
      "type": [ {
        "coding": [ {
          "system": "http://snomed.info/sct",
          "code": "4525004"
        } ]
      } ],
      "subject": {
        "reference": "Patient/d9dc15b7-bf03-4b72-8dd5-3e4db21f052d"
      },
      "period": {
        "start": "2026-09-30T07:59:00.000Z",
        "end": "2026-09-30T08:00:00.000Z"
      },
      "length": {
        "value": 0,
        "unit": "days"
      }
    },
    "request": {
      "method": "PUT",
      "url": "Encounter/a705c184-faee-4ad9-b878-e6c4d8faa3da"
    }
  }, {
    "fullUrl": "https://madie.cms.gov/Encounter/19a7490d-e119-49e5-b4a9-8e439ff57d70",
    "resource": {
      "resourceType": "Encounter",
      "id": "19a7490d-e119-49e5-b4a9-8e439ff57d70",
      "meta": {
        "profile": [ "http://hl7.org/fhir/us/qicore/StructureDefinition/qicore-encounter" ]
      },
      "status": "finished",
      "class": {
        "system": "http://terminology.hl7.org/CodeSystem/v3-ActCode",
        "code": "OBSENC",
        "display": "observation encounter"
      },
      "type": [ {
        "coding": [ {
          "system": "http://snomed.info/sct",
          "code": "448951000124107"
        } ]
      } ],
      "subject": {
        "reference": "Patient/d9dc15b7-bf03-4b72-8dd5-3e4db21f052d"
      },
      "period": {
        "start": "2026-09-30T08:01:00.000Z",
        "end": "2026-09-30T10:00:00.000Z"
      },
      "length": {
        "value": 0,
        "unit": "days"
      }
    },
    "request": {
      "method": "PUT",
      "url": "Encounter/19a7490d-e119-49e5-b4a9-8e439ff57d70"
    }
  }, {
    "fullUrl": "https://madie.cms.gov/Encounter/f8646b57-7ac8-465d-a96e-063a345ef0f2",
    "resource": {
      "resourceType": "Encounter",
      "id": "f8646b57-7ac8-465d-a96e-063a345ef0f2",
      "meta": {
        "profile": [ "http://hl7.org/fhir/us/qicore/StructureDefinition/qicore-encounter" ]
      },
      "status": "finished",
      "class": {
        "system": "http://terminology.hl7.org/CodeSystem/v3-ActCode",
        "code": "IMP",
        "display": "inpatient encounter"
      },
      "type": [ {
        "coding": [ {
          "system": "http://snomed.info/sct",
          "code": "32485007"
        } ]
      } ],
      "subject": {
        "reference": "Patient/d9dc15b7-bf03-4b72-8dd5-3e4db21f052d"
      },
      "period": {
        "start": "2026-09-30T11:00:00.000Z",
        "end": "2026-10-12T00:15:00.000Z"
      },
      "length": {
        "value": 12,
        "unit": "days"
      },
      "reasonReference": [ {
        "reference": "Condition/f5e2d5e0-427e-4c87-9d90-c59e9674bbc0"
      } ]
    },
    "request": {
      "method": "PUT",
      "url": "Encounter/f8646b57-7ac8-465d-a96e-063a345ef0f2"
    }
  }, {
    "fullUrl": "https://madie.cms.gov/ServiceRequest/97a28597-54da-4e6b-8d08-74a19961690a",
    "resource": {
      "resourceType": "ServiceRequest",
      "id": "97a28597-54da-4e6b-8d08-74a19961690a",
      "meta": {
        "profile": [ "http://hl7.org/fhir/us/qicore/StructureDefinition/qicore-servicerequest" ]
      },
      "status": "active",
      "intent": "order",
      "code": {
        "coding": [ {
          "system": "http://snomed.info/sct",
          "code": "133918004"
        } ]
      },
      "subject": {
        "reference": "Patient/d9dc15b7-bf03-4b72-8dd5-3e4db21f052d"
      },
      "authoredOn": "2026-09-30T08:01:00.000Z"
    },
    "request": {
      "method": "PUT",
      "url": "ServiceRequest/97a28597-54da-4e6b-8d08-74a19961690a"
    }
  }, {
    "fullUrl": "https://madie.cms.gov/Coverage/657a0aa2-544c-423f-ab08-540eb8b66afe",
    "resource": {
      "resourceType": "Coverage",
      "id": "657a0aa2-544c-423f-ab08-540eb8b66afe",
      "status": "active",
      "subscriberId": "523435",
      "beneficiary": {
        "reference": "Patient/d9dc15b7-bf03-4b72-8dd5-3e4db21f052d"
      },
      "relationship": {
        "coding": [ {
          "system": "http://terminology.hl7.org/CodeSystem/subscriber-relationship",
          "code": "self"
        } ]
      },
      "period": {
        "start": "1986-09-18T08:00:00.000Z"
      },
      "payor": [ {
        "reference": "Organization/64b25df4-65b7-4abb-a2e9-9898fcf254d7"
      } ]
    },
    "request": {
      "method": "PUT",
      "url": "Coverage/657a0aa2-544c-423f-ab08-540eb8b66afe"
    }
  }, {
    "fullUrl": "https://madie.cms.gov/Condition/4d90f23b-f78e-40de-9066-756eb965f5d7",
    "resource": {
      "resourceType": "Condition",
      "id": "4d90f23b-f78e-40de-9066-756eb965f5d7",
      "meta": {
        "profile": [ "http://hl7.org/fhir/us/qicore/StructureDefinition/qicore-condition-encounter-diagnosis" ]
      },
      "clinicalStatus": {
        "coding": [ {
          "system": "http://terminology.hl7.org/CodeSystem/condition-clinical",
          "code": "active"
        } ]
      },
      "verificationStatus": {
        "coding": [ {
          "system": "http://terminology.hl7.org/CodeSystem/condition-ver-status",
          "code": "confirmed"
        } ]
      },
      "category": [ {
        "coding": [ {
          "system": "http://terminology.hl7.org/CodeSystem/condition-category",
          "code": "encounter-diagnosis",
          "display": "Encounter Diagnosis"
        } ]
      } ],
      "code": {
        "coding": [ {
          "system": "http://snomed.info/sct",
          "version": "2021-09",
          "code": "111297002",
          "display": "Nonparalytic stroke (disorder)",
          "userSelected": true
        } ]
      },
      "subject": {
        "reference": "Patient/d9dc15b7-bf03-4b72-8dd5-3e4db21f052d"
      },
      "recordedDate": "2026-10-13T08:00:00.000Z"
    },
    "request": {
      "method": "PUT",
      "url": "Condition/4d90f23b-f78e-40de-9066-756eb965f5d7"
    }
  }, {
    "fullUrl": "https://madie.cms.gov/Organization/64b25df4-65b7-4abb-a2e9-9898fcf254d7",
    "resource": {
      "resourceType": "Organization",
      "id": "64b25df4-65b7-4abb-a2e9-9898fcf254d7",
      "meta": {
        "profile": [ "http://hl7.org/fhir/us/qicore/StructureDefinition/qicore-organization" ]
      },
      "identifier": [ {
        "use": "temp",
        "system": "urn:oid:2.16.840.1.113883.4.4",
        "value": "21-3259825"
      } ],
      "active": true,
      "type": [ {
        "coding": [ {
          "system": "http://terminology.hl7.org/CodeSystem/organization-type",
          "code": "pay",
          "display": "Payer"
        } ]
      } ],
      "name": "Blue Cross Blue Shield of Texas",
      "telecom": [ {
        "system": "phone",
        "value": "(+1) 972-766-6900"
      } ],
      "address": [ {
        "use": "billing",
        "type": "postal",
        "line": [ "P.O. Box 660044" ],
        "city": "Dallas",
        "state": "TX",
        "postalCode": "75266-0044",
        "country": "USA"
      } ]
    },
    "request": {
      "method": "PUT",
      "url": "Organization/64b25df4-65b7-4abb-a2e9-9898fcf254d7"
    }
  }, {
    "fullUrl": "https://madie.cms.gov/Practitioner/5e6ef2fb-5d50-4957-bade-e4b15683ffef",
    "resource": {
      "resourceType": "Practitioner",
      "id": "5e6ef2fb-5d50-4957-bade-e4b15683ffef",
      "meta": {
        "profile": [ "http://hl7.org/fhir/us/qicore/StructureDefinition/qicore-practitioner" ]
      },
      "identifier": [ {
        "system": "http://hl7.org/fhir/sid/us-npi",
        "value": "9999999896"
      } ],
      "name": [ {
        "family": "Evil",
        "prefix": [ "Dr" ]
      } ]
    },
    "request": {
      "method": "PUT",
      "url": "Practitioner/5e6ef2fb-5d50-4957-bade-e4b15683ffef"
    }
  }, {
    "fullUrl": "https://madie.cms.gov/MeasureReport/5f28ccea-f9b6-43da-919f-092761094986",
    "resource": {
      "resourceType": "MeasureReport",
      "id": "5f28ccea-f9b6-43da-919f-092761094986",
      "meta": {
        "profile": [ "http://hl7.org/fhir/us/cqfmeasures/StructureDefinition/test-case-cqfm" ]
      },
      "contained": [ {
        "resourceType": "Parameters",
        "id": "ab8c4b7b-13cb-4c1f-bbcd-1b64eccf1578-parameters",
        "parameter": [ {
          "name": "subject",
          "valueString": "d9dc15b7-bf03-4b72-8dd5-3e4db21f052d"
        } ]
      } ],
      "extension": [ {
        "url": "http://hl7.org/fhir/StructureDefinition/cqf-inputParameters",
        "valueReference": {
          "reference": "#ab8c4b7b-13cb-4c1f-bbcd-1b64eccf1578-parameters"
        }
      }, {
        "url": "http://hl7.org/fhir/us/cqfmeasures/StructureDefinition/cqfm-testCaseDescription",
        "valueMarkdown": "\"Patient receives CMO order during Observation, ED visit ends 1 minute before Obs starts, Obs ends 60 min before inpatient start. Testing HospitalizationWithObservation function.\n\n\"\n"
      } ],
      "modifierExtension": [ {
        "url": "http://hl7.org/fhir/us/cqfmeasures/StructureDefinition/cqfm-isTestCase",
        "valueBoolean": true
      } ],
      "status": "complete",
      "type": "individual",
      "measure": "https://madie.cms.gov/Measure/CMS71FHIRSTKAnticoagAFFlutter",
      "period": {
        "start": "2026-01-01",
        "end": "2026-12-31"
      },
      "group": [ {
        "id": "Group_1",
        "population": [ {
          "id": "InitialPopulation_1",
          "code": {
            "coding": [ {
              "system": "http://terminology.hl7.org/CodeSystem/measure-population",
              "code": "initial-population",
              "display": "Initial Population"
            } ]
          },
          "count": 1
        }, {
          "id": "Denominator_1",
          "code": {
            "coding": [ {
              "system": "http://terminology.hl7.org/CodeSystem/measure-population",
              "code": "denominator",
              "display": "Denominator"
            } ]
          },
          "count": 1
        }, {
          "id": "DenominatorExclusion_1",
          "code": {
            "coding": [ {
              "system": "http://terminology.hl7.org/CodeSystem/measure-population",
              "code": "denominator-exclusion",
              "display": "Denominator Exclusion"
            } ]
          },
          "count": 1
        }, {
          "id": "Numerator_1",
          "code": {
            "coding": [ {
              "system": "http://terminology.hl7.org/CodeSystem/measure-population",
              "code": "numerator",
              "display": "Numerator"
            } ]
          },
          "count": 0
        }, {
          "id": "DenominatorException_1",
          "code": {
            "coding": [ {
              "system": "http://terminology.hl7.org/CodeSystem/measure-population",
              "code": "denominator-exception",
              "display": "Denominator Exception"
            } ]
          },
          "count": 0
        } ],
        "measureScore": {
          "value": 0.0
        }
      } ],
      "evaluatedResource": [ {
        "reference": "Patient/d9dc15b7-bf03-4b72-8dd5-3e4db21f052d"
      }, {
        "reference": "Claim/826af6b9-3f8b-423f-8518-dab673fdd125"
      }, {
        "reference": "Condition/f5e2d5e0-427e-4c87-9d90-c59e9674bbc0"
      }, {
        "reference": "Encounter/a705c184-faee-4ad9-b878-e6c4d8faa3da"
      }, {
        "reference": "Encounter/19a7490d-e119-49e5-b4a9-8e439ff57d70"
      }, {
        "reference": "Encounter/f8646b57-7ac8-465d-a96e-063a345ef0f2"
      }, {
        "reference": "ServiceRequest/97a28597-54da-4e6b-8d08-74a19961690a"
      }, {
        "reference": "Coverage/657a0aa2-544c-423f-ab08-540eb8b66afe"
      }, {
        "reference": "Condition/4d90f23b-f78e-40de-9066-756eb965f5d7"
      }, {
        "reference": "Organization/64b25df4-65b7-4abb-a2e9-9898fcf254d7"
      }, {
        "reference": "Practitioner/5e6ef2fb-5d50-4957-bade-e4b15683ffef"
      } ]
    },
    "request": {
      "method": "PUT",
      "url": "MeasureReport/5f28ccea-f9b6-43da-919f-092761094986"
    }
  } ]
}