{
  "resourceType": "Bundle",
  "id": "633c9d030968f8012250fc83",
  "type": "transaction",
  "entry": [ {
    "fullUrl": "https://madie.cms.gov/Patient/0f3f1ce7-9c34-4082-a635-f09ddcf53ac1",
    "resource": {
      "resourceType": "Patient",
      "id": "0f3f1ce7-9c34-4082-a635-f09ddcf53ac1",
      "meta": {
        "profile": [ "http://hl7.org/fhir/us/qicore/StructureDefinition/qicore-patient" ]
      },
      "text": {
        "status": "generated",
        "div": "<div xmlns=\"http://www.w3.org/1999/xhtml\"><div class=\"hapiHeaderText\">CMOdurEnc_ED=1hrNoObsBFEnc <b>DENEXPASS </b></div><table class=\"hapiPropertyTable\"><tbody><tr><td>Identifier</td><td>c13349494c162d88448cb3ad5c0d4a05</td></tr><tr><td>Date of birth</td><td><span>18 September 1985</span></td></tr></tbody></table></div>"
      },
      "extension": [ {
        "url": "http://hl7.org/fhir/us/core/StructureDefinition/us-core-race",
        "extension": [ {
          "url": "ombCategory",
          "valueCoding": {
            "system": "urn:oid:2.16.840.1.113883.6.238",
            "code": "1002-5",
            "display": "American Indian or Alaska Native",
            "userSelected": true
          }
        }, {
          "url": "text",
          "valueString": "American Indian or Alaska Native"
        } ]
      }, {
        "url": "http://hl7.org/fhir/us/core/StructureDefinition/us-core-ethnicity",
        "extension": [ {
          "url": "ombCategory",
          "valueCoding": {
            "system": "urn:oid:2.16.840.1.113883.6.238",
            "code": "2135-2",
            "display": "Hispanic or Latino",
            "userSelected": true
          }
        }, {
          "url": "text",
          "valueString": "Hispanic or Latino"
        } ]
      } ],
      "identifier": [ {
        "type": {
          "coding": [ {
            "system": "http://terminology.hl7.org/CodeSystem/v2-0203",
            "code": "MR"
          } ]
        },
        "system": "https://bonnie-fhir.healthit.gov/",
        "value": "633c9d030968f8012250fc83"
      } ],
      "active": true,
      "name": [ {
        "use": "usual",
        "family": "DENEXPass",
        "given": [ "CMOdurEncED1hrNoObsBFEnc" ]
      } ],
      "gender": "female",
      "birthDate": "1986-09-18"
    },
    "request": {
      "method": "PUT",
      "url": "Patient/0f3f1ce7-9c34-4082-a635-f09ddcf53ac1"
    }
  }, {
    "fullUrl": "https://madie.cms.gov/Claim/89d29c52-e537-4525-8e4e-2bdd3f7de388",
    "resource": {
      "resourceType": "Claim",
      "id": "89d29c52-e537-4525-8e4e-2bdd3f7de388",
      "meta": {
        "profile": [ "http://hl7.org/fhir/us/qicore/StructureDefinition/qicore-claim" ]
      },
      "status": "active",
      "type": {
        "coding": [ {
          "system": "http://terminology.hl7.org/CodeSystem/claim-type",
          "code": "institutional"
        } ]
      },
      "use": "claim",
      "patient": {
        "reference": "Patient/0f3f1ce7-9c34-4082-a635-f09ddcf53ac1"
      },
      "created": "2026-12-01",
      "provider": {
        "reference": "Practitioner/c6622ffe-3636-4f37-a4f7-0ae265a56491"
      },
      "priority": {
        "coding": [ {
          "system": "http://terminology.hl7.org/CodeSystem/processpriority",
          "code": "normal"
        } ]
      },
      "diagnosis": [ {
        "sequence": 1,
        "diagnosisCodeableConcept": {
          "coding": [ {
            "system": "http://hl7.org/fhir/sid/icd-10-cm",
            "code": "I63.00"
          } ]
        },
        "type": [ {
          "coding": [ {
            "system": "http://terminology.hl7.org/CodeSystem/ex-diagnosistype",
            "code": "principal"
          } ]
        } ]
      } ],
      "insurance": [ {
        "sequence": 1,
        "focal": true,
        "coverage": {
          "reference": "Coverage/5fa041661c76ba66d9959367"
        }
      } ],
      "item": [ {
        "sequence": 1,
        "diagnosisSequence": [ 1 ],
        "productOrService": {
          "coding": [ {
            "system": "http://terminology.hl7.org/CodeSystem/ex-USCLS",
            "code": "99555"
          } ]
        },
        "encounter": [ {
          "reference": "Encounter/1b4305b6-8022-4518-907e-2002335b9cb6"
        } ]
      } ]
    },
    "request": {
      "method": "PUT",
      "url": "Claim/89d29c52-e537-4525-8e4e-2bdd3f7de388"
    }
  }, {
    "fullUrl": "https://madie.cms.gov/Condition/d84dcef2-4d09-4e92-8d96-a5cb73d33067",
    "resource": {
      "resourceType": "Condition",
      "id": "d84dcef2-4d09-4e92-8d96-a5cb73d33067",
      "meta": {
        "profile": [ "http://hl7.org/fhir/us/qicore/StructureDefinition/qicore-condition-problems-health-concerns" ]
      },
      "clinicalStatus": {
        "coding": [ {
          "system": "http://terminology.hl7.org/CodeSystem/condition-clinical",
          "code": "inactive"
        } ]
      },
      "verificationStatus": {
        "coding": [ {
          "system": "http://terminology.hl7.org/CodeSystem/condition-ver-status",
          "code": "confirmed"
        } ]
      },
      "category": [ {
        "coding": [ {
          "system": "http://terminology.hl7.org/CodeSystem/condition-category",
          "code": "problem-list-item"
        } ]
      } ],
      "code": {
        "coding": [ {
          "system": "http://hl7.org/fhir/sid/icd-10-cm",
          "code": "I48.20"
        }, {
          "system": "http://hl7.org/fhir/sid/icd-10-cm",
          "code": "I48.0"
        }, {
          "system": "http://snomed.info/sct",
          "code": "5370000"
        } ]
      },
      "subject": {
        "reference": "Patient/0f3f1ce7-9c34-4082-a635-f09ddcf53ac1"
      },
      "onsetDateTime": "2026-10-01T09:00:00.000Z",
      "abatementDateTime": "2026-10-12T00:15:00.000Z"
    },
    "request": {
      "method": "PUT",
      "url": "Condition/d84dcef2-4d09-4e92-8d96-a5cb73d33067"
    }
  }, {
    "fullUrl": "https://madie.cms.gov/Encounter/c32fc2ed-7c46-4a52-b25a-8136957112ef",
    "resource": {
      "resourceType": "Encounter",
      "id": "c32fc2ed-7c46-4a52-b25a-8136957112ef",
      "meta": {
        "profile": [ "http://hl7.org/fhir/us/qicore/StructureDefinition/qicore-encounter" ]
      },
      "status": "finished",
      "class": {
        "system": "http://terminology.hl7.org/CodeSystem/v3-ActCode",
        "code": "EMER",
        "display": "emergency"
      },
      "type": [ {
        "coding": [ {
          "system": "http://snomed.info/sct",
          "code": "4525004"
        } ]
      } ],
      "subject": {
        "reference": "Patient/0f3f1ce7-9c34-4082-a635-f09ddcf53ac1"
      },
      "period": {
        "start": "2026-10-01T08:00:00.000Z",
        "end": "2026-10-01T09:00:00.000Z"
      },
      "length": {
        "value": 0,
        "unit": "days"
      }
    },
    "request": {
      "method": "PUT",
      "url": "Encounter/c32fc2ed-7c46-4a52-b25a-8136957112ef"
    }
  }, {
    "fullUrl": "https://madie.cms.gov/Encounter/1b4305b6-8022-4518-907e-2002335b9cb6",
    "resource": {
      "resourceType": "Encounter",
      "id": "1b4305b6-8022-4518-907e-2002335b9cb6",
      "meta": {
        "profile": [ "http://hl7.org/fhir/us/qicore/StructureDefinition/qicore-encounter" ]
      },
      "status": "finished",
      "class": {
        "system": "http://terminology.hl7.org/CodeSystem/v3-ActCode",
        "code": "IMP",
        "display": "inpatient encounter"
      },
      "type": [ {
        "coding": [ {
          "system": "http://snomed.info/sct",
          "code": "32485007"
        } ]
      } ],
      "subject": {
        "reference": "Patient/0f3f1ce7-9c34-4082-a635-f09ddcf53ac1"
      },
      "period": {
        "start": "2026-10-01T09:00:00.000Z",
        "end": "2026-10-12T00:15:00.000Z"
      },
      "length": {
        "value": 11,
        "unit": "days"
      },
      "reasonReference": [ {
        "reference": "Condition/d84dcef2-4d09-4e92-8d96-a5cb73d33067"
      } ]
    },
    "request": {
      "method": "PUT",
      "url": "Encounter/1b4305b6-8022-4518-907e-2002335b9cb6"
    }
  }, {
    "fullUrl": "https://madie.cms.gov/ServiceRequest/47d2efce-3a54-4e84-a5a4-b9e0b9d12ccc",
    "resource": {
      "resourceType": "ServiceRequest",
      "id": "47d2efce-3a54-4e84-a5a4-b9e0b9d12ccc",
      "meta": {
        "profile": [ "http://hl7.org/fhir/us/qicore/StructureDefinition/qicore-servicerequest" ]
      },
      "status": "active",
      "intent": "order",
      "code": {
        "coding": [ {
          "system": "http://snomed.info/sct",
          "code": "133918004"
        } ]
      },
      "subject": {
        "reference": "Patient/0f3f1ce7-9c34-4082-a635-f09ddcf53ac1"
      },
      "authoredOn": "2026-10-01T09:15:00.000Z"
    },
    "request": {
      "method": "PUT",
      "url": "ServiceRequest/47d2efce-3a54-4e84-a5a4-b9e0b9d12ccc"
    }
  }, {
    "fullUrl": "https://madie.cms.gov/Coverage/a6effe50-8094-4cd6-a9d4-d4c6536d77d3",
    "resource": {
      "resourceType": "Coverage",
      "id": "a6effe50-8094-4cd6-a9d4-d4c6536d77d3",
      "status": "active",
      "subscriberId": "523435",
      "beneficiary": {
        "reference": "Patient/0f3f1ce7-9c34-4082-a635-f09ddcf53ac1"
      },
      "relationship": {
        "coding": [ {
          "system": "http://terminology.hl7.org/CodeSystem/subscriber-relationship",
          "code": "self"
        } ]
      },
      "period": {
        "start": "1986-09-18T08:00:00.000Z"
      },
      "payor": [ {
        "reference": "Organization/9bd2ca10-1706-47b7-beaf-08a542de1fc8"
      } ]
    },
    "request": {
      "method": "PUT",
      "url": "Coverage/a6effe50-8094-4cd6-a9d4-d4c6536d77d3"
    }
  }, {
    "fullUrl": "https://madie.cms.gov/Condition/79564e14-d7d7-4e26-ba0e-b50ce3bb6702",
    "resource": {
      "resourceType": "Condition",
      "id": "79564e14-d7d7-4e26-ba0e-b50ce3bb6702",
      "meta": {
        "profile": [ "http://hl7.org/fhir/us/qicore/StructureDefinition/qicore-condition-encounter-diagnosis" ]
      },
      "clinicalStatus": {
        "coding": [ {
          "system": "http://terminology.hl7.org/CodeSystem/condition-clinical",
          "code": "active"
        } ]
      },
      "verificationStatus": {
        "coding": [ {
          "system": "http://terminology.hl7.org/CodeSystem/condition-ver-status",
          "code": "confirmed"
        } ]
      },
      "category": [ {
        "coding": [ {
          "system": "http://terminology.hl7.org/CodeSystem/condition-category",
          "code": "encounter-diagnosis",
          "display": "Encounter Diagnosis"
        } ]
      } ],
      "code": {
        "coding": [ {
          "system": "http://snomed.info/sct",
          "version": "2021-09",
          "code": "111297002",
          "display": "Nonparalytic stroke (disorder)",
          "userSelected": true
        } ]
      },
      "subject": {
        "reference": "Patient/0f3f1ce7-9c34-4082-a635-f09ddcf53ac1"
      },
      "recordedDate": "2026-10-13T08:00:00.000Z"
    },
    "request": {
      "method": "PUT",
      "url": "Condition/79564e14-d7d7-4e26-ba0e-b50ce3bb6702"
    }
  }, {
    "fullUrl": "https://madie.cms.gov/Organization/9bd2ca10-1706-47b7-beaf-08a542de1fc8",
    "resource": {
      "resourceType": "Organization",
      "id": "9bd2ca10-1706-47b7-beaf-08a542de1fc8",
      "meta": {
        "profile": [ "http://hl7.org/fhir/us/qicore/StructureDefinition/qicore-organization" ]
      },
      "identifier": [ {
        "use": "temp",
        "system": "urn:oid:2.16.840.1.113883.4.4",
        "value": "21-3259825"
      } ],
      "active": true,
      "type": [ {
        "coding": [ {
          "system": "http://terminology.hl7.org/CodeSystem/organization-type",
          "code": "pay",
          "display": "Payer"
        } ]
      } ],
      "name": "Blue Cross Blue Shield of Texas",
      "telecom": [ {
        "system": "phone",
        "value": "(+1) 972-766-6900"
      } ],
      "address": [ {
        "use": "billing",
        "type": "postal",
        "line": [ "P.O. Box 660044" ],
        "city": "Dallas",
        "state": "TX",
        "postalCode": "75266-0044",
        "country": "USA"
      } ]
    },
    "request": {
      "method": "PUT",
      "url": "Organization/9bd2ca10-1706-47b7-beaf-08a542de1fc8"
    }
  }, {
    "fullUrl": "https://madie.cms.gov/Practitioner/c6622ffe-3636-4f37-a4f7-0ae265a56491",
    "resource": {
      "resourceType": "Practitioner",
      "id": "c6622ffe-3636-4f37-a4f7-0ae265a56491",
      "meta": {
        "profile": [ "http://hl7.org/fhir/us/qicore/StructureDefinition/qicore-practitioner" ]
      },
      "identifier": [ {
        "system": "http://hl7.org/fhir/sid/us-npi",
        "value": "9999999896"
      } ],
      "name": [ {
        "family": "Evil",
        "prefix": [ "Dr" ]
      } ]
    },
    "request": {
      "method": "PUT",
      "url": "Practitioner/c6622ffe-3636-4f37-a4f7-0ae265a56491"
    }
  }, {
    "fullUrl": "https://madie.cms.gov/MeasureReport/3c17a068-8559-4f67-8638-c1feb8e351ed",
    "resource": {
      "resourceType": "MeasureReport",
      "id": "3c17a068-8559-4f67-8638-c1feb8e351ed",
      "meta": {
        "profile": [ "http://hl7.org/fhir/us/cqfmeasures/StructureDefinition/test-case-cqfm" ]
      },
      "contained": [ {
        "resourceType": "Parameters",
        "id": "71fb0147-999f-4e9f-864d-155055cdb7ec-parameters",
        "parameter": [ {
          "name": "subject",
          "valueString": "0f3f1ce7-9c34-4082-a635-f09ddcf53ac1"
        } ]
      } ],
      "extension": [ {
        "url": "http://hl7.org/fhir/StructureDefinition/cqf-inputParameters",
        "valueReference": {
          "reference": "#71fb0147-999f-4e9f-864d-155055cdb7ec-parameters"
        }
      }, {
        "url": "http://hl7.org/fhir/us/cqfmeasures/StructureDefinition/cqfm-testCaseDescription",
        "valueMarkdown": "Patient receives CMO during inpatient encounter. ED ends 60 min. before Observation start, Obs ends 60 min before inpatient encounter start. Testing HospitalizationWithObservation function.\n"
      } ],
      "modifierExtension": [ {
        "url": "http://hl7.org/fhir/us/cqfmeasures/StructureDefinition/cqfm-isTestCase",
        "valueBoolean": true
      } ],
      "status": "complete",
      "type": "individual",
      "measure": "https://madie.cms.gov/Measure/CMS71FHIRSTKAnticoagAFFlutter",
      "period": {
        "start": "2026-01-01",
        "end": "2026-12-31"
      },
      "group": [ {
        "id": "Group_1",
        "population": [ {
          "id": "InitialPopulation_1",
          "code": {
            "coding": [ {
              "system": "http://terminology.hl7.org/CodeSystem/measure-population",
              "code": "initial-population",
              "display": "Initial Population"
            } ]
          },
          "count": 1
        }, {
          "id": "Denominator_1",
          "code": {
            "coding": [ {
              "system": "http://terminology.hl7.org/CodeSystem/measure-population",
              "code": "denominator",
              "display": "Denominator"
            } ]
          },
          "count": 1
        }, {
          "id": "DenominatorExclusion_1",
          "code": {
            "coding": [ {
              "system": "http://terminology.hl7.org/CodeSystem/measure-population",
              "code": "denominator-exclusion",
              "display": "Denominator Exclusion"
            } ]
          },
          "count": 1
        }, {
          "id": "Numerator_1",
          "code": {
            "coding": [ {
              "system": "http://terminology.hl7.org/CodeSystem/measure-population",
              "code": "numerator",
              "display": "Numerator"
            } ]
          },
          "count": 0
        }, {
          "id": "DenominatorException_1",
          "code": {
            "coding": [ {
              "system": "http://terminology.hl7.org/CodeSystem/measure-population",
              "code": "denominator-exception",
              "display": "Denominator Exception"
            } ]
          },
          "count": 0
        } ],
        "measureScore": {
          "value": 0.0
        }
      } ],
      "evaluatedResource": [ {
        "reference": "Patient/0f3f1ce7-9c34-4082-a635-f09ddcf53ac1"
      }, {
        "reference": "Claim/89d29c52-e537-4525-8e4e-2bdd3f7de388"
      }, {
        "reference": "Condition/d84dcef2-4d09-4e92-8d96-a5cb73d33067"
      }, {
        "reference": "Encounter/c32fc2ed-7c46-4a52-b25a-8136957112ef"
      }, {
        "reference": "Encounter/1b4305b6-8022-4518-907e-2002335b9cb6"
      }, {
        "reference": "ServiceRequest/47d2efce-3a54-4e84-a5a4-b9e0b9d12ccc"
      }, {
        "reference": "Coverage/a6effe50-8094-4cd6-a9d4-d4c6536d77d3"
      }, {
        "reference": "Condition/79564e14-d7d7-4e26-ba0e-b50ce3bb6702"
      }, {
        "reference": "Organization/9bd2ca10-1706-47b7-beaf-08a542de1fc8"
      }, {
        "reference": "Practitioner/c6622ffe-3636-4f37-a4f7-0ae265a56491"
      } ]
    },
    "request": {
      "method": "PUT",
      "url": "MeasureReport/3c17a068-8559-4f67-8638-c1feb8e351ed"
    }
  } ]
}