{
  "resourceType": "Bundle",
  "id": "633c9d030968f8012250fc71",
  "type": "transaction",
  "entry": [ {
    "fullUrl": "https://madie.cms.gov/Patient/aedf9576-e1ce-4777-8e3a-5089076b50f4",
    "resource": {
      "resourceType": "Patient",
      "id": "aedf9576-e1ce-4777-8e3a-5089076b50f4",
      "meta": {
        "profile": [ "http://hl7.org/fhir/us/qicore/StructureDefinition/qicore-patient" ]
      },
      "text": {
        "status": "generated",
        "div": "<div xmlns=\"http://www.w3.org/1999/xhtml\"><div class=\"hapiHeaderText\">Age=18ondayOfEnc <b>IPPPASS </b></div><table class=\"hapiPropertyTable\"><tbody><tr><td>Identifier</td><td>384b0a61298e7a9ca56a87b5bee0a043</td></tr><tr><td>Date of birth</td><td><span>08 February 1994</span></td></tr></tbody></table></div>"
      },
      "extension": [ {
        "url": "http://hl7.org/fhir/us/core/StructureDefinition/us-core-race",
        "extension": [ {
          "url": "ombCategory",
          "valueCoding": {
            "system": "urn:oid:2.16.840.1.113883.6.238",
            "code": "1002-5",
            "display": "American Indian or Alaska Native",
            "userSelected": true
          }
        }, {
          "url": "text",
          "valueString": "American Indian or Alaska Native"
        } ]
      }, {
        "url": "http://hl7.org/fhir/us/core/StructureDefinition/us-core-ethnicity",
        "extension": [ {
          "url": "ombCategory",
          "valueCoding": {
            "system": "urn:oid:2.16.840.1.113883.6.238",
            "code": "2135-2",
            "display": "Hispanic or Latino",
            "userSelected": true
          }
        }, {
          "url": "text",
          "valueString": "Hispanic or Latino"
        } ]
      } ],
      "identifier": [ {
        "type": {
          "coding": [ {
            "system": "http://terminology.hl7.org/CodeSystem/v2-0203",
            "code": "MR"
          } ]
        },
        "system": "https://bonnie-fhir.healthit.gov/",
        "value": "633c9d030968f8012250fc71"
      } ],
      "active": true,
      "name": [ {
        "use": "usual",
        "family": "IPPPass",
        "given": [ "Age=18ondayOfEnc" ]
      } ],
      "gender": "male",
      "birthDate": "2007-02-08"
    },
    "request": {
      "method": "PUT",
      "url": "Patient/aedf9576-e1ce-4777-8e3a-5089076b50f4"
    }
  }, {
    "fullUrl": "https://madie.cms.gov/Encounter/b3459da2-5de0-4e71-bf97-08c2617ed743",
    "resource": {
      "resourceType": "Encounter",
      "id": "b3459da2-5de0-4e71-bf97-08c2617ed743",
      "meta": {
        "profile": [ "http://hl7.org/fhir/us/qicore/StructureDefinition/qicore-encounter" ]
      },
      "status": "finished",
      "class": {
        "system": "http://terminology.hl7.org/CodeSystem/v3-ActCode",
        "code": "IMP",
        "display": "inpatient encounter"
      },
      "type": [ {
        "coding": [ {
          "system": "http://snomed.info/sct",
          "code": "32485007"
        } ]
      } ],
      "subject": {
        "reference": "Patient/aedf9576-e1ce-4777-8e3a-5089076b50f4"
      },
      "period": {
        "start": "2026-02-08T08:00:00.000Z",
        "end": "2026-02-10T08:15:00.000Z"
      },
      "length": {
        "value": 2,
        "unit": "days"
      },
      "diagnosis": [ {
        "condition": {
          "reference": "Condition/acaf8b5e-53c6-41af-b2e0-7429b1ae6b1e"
        },
        "use": {
          "coding": [ {
            "system": "http://terminology.hl7.org/CodeSystem/diagnosis-role",
            "code": "billing",
            "display": "Billing"
          } ]
        },
        "rank": 1
      } ]
    },
    "request": {
      "method": "PUT",
      "url": "Encounter/b3459da2-5de0-4e71-bf97-08c2617ed743"
    }
  }, {
    "fullUrl": "https://madie.cms.gov/Coverage/229cd7cc-449c-4339-b689-a37411d1b013",
    "resource": {
      "resourceType": "Coverage",
      "id": "229cd7cc-449c-4339-b689-a37411d1b013",
      "status": "active",
      "beneficiary": {
        "reference": "Patient/aedf9576-e1ce-4777-8e3a-5089076b50f4"
      },
      "period": {
        "start": "1995-02-08T08:00:00.000Z"
      },
      "payor": [ {
        "reference": "Organization/91795f2c-03dc-4d99-9909-2549f862be40"
      } ]
    },
    "request": {
      "method": "PUT",
      "url": "Coverage/229cd7cc-449c-4339-b689-a37411d1b013"
    }
  }, {
    "fullUrl": "https://madie.cms.gov/Claim/0ef55fe6-2415-4c80-8d3f-d2de3fc0acc1",
    "resource": {
      "resourceType": "Claim",
      "id": "0ef55fe6-2415-4c80-8d3f-d2de3fc0acc1",
      "meta": {
        "profile": [ "http://hl7.org/fhir/us/qicore/StructureDefinition/qicore-claim" ]
      },
      "status": "active",
      "type": {
        "coding": [ {
          "system": "http://terminology.hl7.org/CodeSystem/claim-type",
          "code": "institutional"
        } ]
      },
      "use": "claim",
      "patient": {
        "reference": "Patient/aedf9576-e1ce-4777-8e3a-5089076b50f4"
      },
      "created": "2026-12-01",
      "provider": {
        "reference": "Practitioner/95b3cba8-01ce-48b3-9c4f-73688acff6f7"
      },
      "priority": {
        "coding": [ {
          "system": "http://terminology.hl7.org/CodeSystem/processpriority",
          "code": "normal"
        } ]
      },
      "diagnosis": [ {
        "sequence": 1,
        "diagnosisCodeableConcept": {
          "coding": [ {
            "system": "http://hl7.org/fhir/sid/icd-10-cm",
            "code": "I63.00"
          } ]
        },
        "type": [ {
          "coding": [ {
            "system": "http://terminology.hl7.org/CodeSystem/ex-diagnosistype",
            "code": "principal"
          } ]
        } ]
      } ],
      "insurance": [ {
        "sequence": 1,
        "focal": true,
        "coverage": {
          "reference": "Coverage/5fa041661c76ba66d9959367"
        }
      } ],
      "item": [ {
        "sequence": 1,
        "diagnosisSequence": [ 1 ],
        "productOrService": {
          "coding": [ {
            "system": "http://terminology.hl7.org/CodeSystem/ex-USCLS",
            "code": "99555"
          } ]
        },
        "encounter": [ {
          "reference": "Encounter/b3459da2-5de0-4e71-bf97-08c2617ed743"
        } ]
      } ]
    },
    "request": {
      "method": "PUT",
      "url": "Claim/0ef55fe6-2415-4c80-8d3f-d2de3fc0acc1"
    }
  }, {
    "fullUrl": "https://madie.cms.gov/Condition/acaf8b5e-53c6-41af-b2e0-7429b1ae6b1e",
    "resource": {
      "resourceType": "Condition",
      "id": "acaf8b5e-53c6-41af-b2e0-7429b1ae6b1e",
      "meta": {
        "profile": [ "http://hl7.org/fhir/us/qicore/StructureDefinition/qicore-condition-encounter-diagnosis" ]
      },
      "clinicalStatus": {
        "coding": [ {
          "system": "http://terminology.hl7.org/CodeSystem/condition-clinical",
          "code": "active"
        } ]
      },
      "verificationStatus": {
        "coding": [ {
          "system": "http://terminology.hl7.org/CodeSystem/condition-ver-status",
          "code": "confirmed"
        } ]
      },
      "category": [ {
        "coding": [ {
          "system": "http://terminology.hl7.org/CodeSystem/condition-category",
          "code": "encounter-diagnosis",
          "display": "Encounter Diagnosis"
        } ]
      } ],
      "code": {
        "coding": [ {
          "system": "http://snomed.info/sct",
          "version": "2021-09",
          "code": "111297002",
          "display": "Nonparalytic stroke (disorder)",
          "userSelected": true
        } ]
      },
      "subject": {
        "reference": "Patient/aedf9576-e1ce-4777-8e3a-5089076b50f4"
      },
      "recordedDate": "2026-10-13T08:00:00.000Z"
    },
    "request": {
      "method": "PUT",
      "url": "Condition/acaf8b5e-53c6-41af-b2e0-7429b1ae6b1e"
    }
  }, {
    "fullUrl": "https://madie.cms.gov/Organization/91795f2c-03dc-4d99-9909-2549f862be40",
    "resource": {
      "resourceType": "Organization",
      "id": "91795f2c-03dc-4d99-9909-2549f862be40",
      "meta": {
        "profile": [ "http://hl7.org/fhir/us/qicore/StructureDefinition/qicore-organization" ]
      },
      "identifier": [ {
        "use": "temp",
        "system": "urn:oid:2.16.840.1.113883.4.4",
        "value": "21-3259825"
      } ],
      "active": true,
      "type": [ {
        "coding": [ {
          "system": "http://terminology.hl7.org/CodeSystem/organization-type",
          "code": "pay",
          "display": "Payer"
        } ]
      } ],
      "name": "Blue Cross Blue Shield of Texas",
      "telecom": [ {
        "system": "phone",
        "value": "(+1) 972-766-6900"
      } ],
      "address": [ {
        "use": "billing",
        "type": "postal",
        "line": [ "P.O. Box 660044" ],
        "city": "Dallas",
        "state": "TX",
        "postalCode": "75266-0044",
        "country": "USA"
      } ]
    },
    "request": {
      "method": "PUT",
      "url": "Organization/91795f2c-03dc-4d99-9909-2549f862be40"
    }
  }, {
    "fullUrl": "https://madie.cms.gov/Practitioner/95b3cba8-01ce-48b3-9c4f-73688acff6f7",
    "resource": {
      "resourceType": "Practitioner",
      "id": "95b3cba8-01ce-48b3-9c4f-73688acff6f7",
      "meta": {
        "profile": [ "http://hl7.org/fhir/us/qicore/StructureDefinition/qicore-practitioner" ]
      },
      "identifier": [ {
        "system": "http://hl7.org/fhir/sid/us-npi",
        "value": "9999999896"
      } ],
      "name": [ {
        "family": "Evil",
        "prefix": [ "Dr" ]
      } ]
    },
    "request": {
      "method": "PUT",
      "url": "Practitioner/95b3cba8-01ce-48b3-9c4f-73688acff6f7"
    }
  }, {
    "fullUrl": "https://madie.cms.gov/MeasureReport/f9e006bc-902d-4dff-adce-e9ea3dd4bc65",
    "resource": {
      "resourceType": "MeasureReport",
      "id": "f9e006bc-902d-4dff-adce-e9ea3dd4bc65",
      "meta": {
        "profile": [ "http://hl7.org/fhir/us/cqfmeasures/StructureDefinition/test-case-cqfm" ]
      },
      "contained": [ {
        "resourceType": "Parameters",
        "id": "29f46082-aebe-40e6-81fa-d9d4f98aa4dc-parameters",
        "parameter": [ {
          "name": "subject",
          "valueString": "aedf9576-e1ce-4777-8e3a-5089076b50f4"
        } ]
      } ],
      "extension": [ {
        "url": "http://hl7.org/fhir/StructureDefinition/cqf-inputParameters",
        "valueReference": {
          "reference": "#29f46082-aebe-40e6-81fa-d9d4f98aa4dc-parameters"
        }
      }, {
        "url": "http://hl7.org/fhir/us/cqfmeasures/StructureDefinition/cqfm-testCaseDescription",
        "valueMarkdown": "Principal diagnosis = ischemic stroke, patient turns 18 on OccurA starts\n"
      } ],
      "modifierExtension": [ {
        "url": "http://hl7.org/fhir/us/cqfmeasures/StructureDefinition/cqfm-isTestCase",
        "valueBoolean": true
      } ],
      "status": "complete",
      "type": "individual",
      "measure": "https://madie.cms.gov/Measure/CMS71FHIRSTKAnticoagAFFlutter",
      "period": {
        "start": "2026-01-01",
        "end": "2026-12-31"
      },
      "group": [ {
        "id": "Group_1",
        "population": [ {
          "id": "InitialPopulation_1",
          "code": {
            "coding": [ {
              "system": "http://terminology.hl7.org/CodeSystem/measure-population",
              "code": "initial-population",
              "display": "Initial Population"
            } ]
          },
          "count": 1
        }, {
          "id": "Denominator_1",
          "code": {
            "coding": [ {
              "system": "http://terminology.hl7.org/CodeSystem/measure-population",
              "code": "denominator",
              "display": "Denominator"
            } ]
          },
          "count": 0
        }, {
          "id": "DenominatorExclusion_1",
          "code": {
            "coding": [ {
              "system": "http://terminology.hl7.org/CodeSystem/measure-population",
              "code": "denominator-exclusion",
              "display": "Denominator Exclusion"
            } ]
          },
          "count": 0
        }, {
          "id": "Numerator_1",
          "code": {
            "coding": [ {
              "system": "http://terminology.hl7.org/CodeSystem/measure-population",
              "code": "numerator",
              "display": "Numerator"
            } ]
          },
          "count": 0
        }, {
          "id": "DenominatorException_1",
          "code": {
            "coding": [ {
              "system": "http://terminology.hl7.org/CodeSystem/measure-population",
              "code": "denominator-exception",
              "display": "Denominator Exception"
            } ]
          },
          "count": 0
        } ],
        "measureScore": {
          "value": 0.0
        }
      } ],
      "evaluatedResource": [ {
        "reference": "Patient/aedf9576-e1ce-4777-8e3a-5089076b50f4"
      }, {
        "reference": "Encounter/b3459da2-5de0-4e71-bf97-08c2617ed743"
      }, {
        "reference": "Coverage/229cd7cc-449c-4339-b689-a37411d1b013"
      }, {
        "reference": "Claim/0ef55fe6-2415-4c80-8d3f-d2de3fc0acc1"
      }, {
        "reference": "Condition/acaf8b5e-53c6-41af-b2e0-7429b1ae6b1e"
      }, {
        "reference": "Organization/91795f2c-03dc-4d99-9909-2549f862be40"
      }, {
        "reference": "Practitioner/95b3cba8-01ce-48b3-9c4f-73688acff6f7"
      } ]
    },
    "request": {
      "method": "PUT",
      "url": "MeasureReport/f9e006bc-902d-4dff-adce-e9ea3dd4bc65"
    }
  } ]
}