{
  "resourceType": "Bundle",
  "id": "633c9d030968f8012250fc99",
  "type": "transaction",
  "entry": [ {
    "fullUrl": "https://madie.cms.gov/Patient/f0de258a-3358-4f1d-a91d-e1c57a2cb61a",
    "resource": {
      "resourceType": "Patient",
      "id": "f0de258a-3358-4f1d-a91d-e1c57a2cb61a",
      "meta": {
        "profile": [ "http://hl7.org/fhir/us/qicore/StructureDefinition/qicore-patient" ]
      },
      "text": {
        "status": "generated",
        "div": "<div xmlns=\"http://www.w3.org/1999/xhtml\"><div class=\"hapiHeaderText\">Dx=Afib/flutterStart=EncEnd <b>DENOMPASS </b></div><table class=\"hapiPropertyTable\"><tbody><tr><td>Identifier</td><td>eea63111353acebe4dc924bd86a7bec7</td></tr><tr><td>Date of birth</td><td><span>01 December 1960</span></td></tr></tbody></table></div>"
      },
      "extension": [ {
        "url": "http://hl7.org/fhir/us/core/StructureDefinition/us-core-race",
        "extension": [ {
          "url": "ombCategory",
          "valueCoding": {
            "system": "urn:oid:2.16.840.1.113883.6.238",
            "code": "1002-5",
            "display": "American Indian or Alaska Native",
            "userSelected": true
          }
        }, {
          "url": "text",
          "valueString": "American Indian or Alaska Native"
        } ]
      }, {
        "url": "http://hl7.org/fhir/us/core/StructureDefinition/us-core-ethnicity",
        "extension": [ {
          "url": "ombCategory",
          "valueCoding": {
            "system": "urn:oid:2.16.840.1.113883.6.238",
            "code": "2135-2",
            "display": "Hispanic or Latino",
            "userSelected": true
          }
        }, {
          "url": "text",
          "valueString": "Hispanic or Latino"
        } ]
      } ],
      "identifier": [ {
        "type": {
          "coding": [ {
            "system": "http://terminology.hl7.org/CodeSystem/v2-0203",
            "code": "MR"
          } ]
        },
        "system": "https://bonnie-fhir.healthit.gov/",
        "value": "633c9d030968f8012250fc99"
      } ],
      "active": true,
      "name": [ {
        "use": "usual",
        "family": "DENOMPass",
        "given": [ "DxAfibflutterENC" ]
      } ],
      "gender": "male",
      "birthDate": "1961-12-01"
    },
    "request": {
      "method": "PUT",
      "url": "Patient/f0de258a-3358-4f1d-a91d-e1c57a2cb61a"
    }
  }, {
    "fullUrl": "https://madie.cms.gov/Condition/8d57ca7d-25ce-43d1-99a9-e37817648711",
    "resource": {
      "resourceType": "Condition",
      "id": "8d57ca7d-25ce-43d1-99a9-e37817648711",
      "meta": {
        "profile": [ "http://hl7.org/fhir/us/qicore/StructureDefinition/qicore-condition-encounter-diagnosis" ]
      },
      "clinicalStatus": {
        "coding": [ {
          "system": "http://terminology.hl7.org/CodeSystem/condition-clinical",
          "code": "active"
        } ]
      },
      "verificationStatus": {
        "coding": [ {
          "system": "http://terminology.hl7.org/CodeSystem/condition-ver-status",
          "code": "confirmed"
        } ]
      },
      "category": [ {
        "coding": [ {
          "system": "http://terminology.hl7.org/CodeSystem/condition-category",
          "code": "encounter-diagnosis",
          "display": "Encounter Diagnosis"
        } ]
      } ],
      "code": {
        "coding": [ {
          "system": "http://snomed.info/sct",
          "code": "195080001"
        }, {
          "system": "http://hl7.org/fhir/sid/icd-9-cm",
          "code": "427.31"
        }, {
          "system": "http://hl7.org/fhir/sid/icd-10-cm",
          "code": "I48.0"
        } ]
      },
      "subject": {
        "reference": "Patient/f0de258a-3358-4f1d-a91d-e1c57a2cb61a"
      },
      "encounter": {
        "reference": "Encounter/4227e805-a121-4fd6-a22b-7576b09a72bf"
      },
      "onsetDateTime": "2026-02-10T08:15:00.000Z"
    },
    "request": {
      "method": "PUT",
      "url": "Condition/8d57ca7d-25ce-43d1-99a9-e37817648711"
    }
  }, {
    "fullUrl": "https://madie.cms.gov/Encounter/4227e805-a121-4fd6-a22b-7576b09a72bf",
    "resource": {
      "resourceType": "Encounter",
      "id": "4227e805-a121-4fd6-a22b-7576b09a72bf",
      "meta": {
        "profile": [ "http://hl7.org/fhir/us/qicore/StructureDefinition/qicore-encounter" ]
      },
      "status": "finished",
      "class": {
        "system": "http://terminology.hl7.org/CodeSystem/v3-ActCode",
        "code": "IMP",
        "display": "inpatient encounter"
      },
      "type": [ {
        "coding": [ {
          "system": "http://snomed.info/sct",
          "code": "183452005"
        } ]
      } ],
      "subject": {
        "reference": "Patient/f0de258a-3358-4f1d-a91d-e1c57a2cb61a"
      },
      "period": {
        "start": "2026-02-08T08:00:00.000Z",
        "end": "2026-02-10T08:15:00.000Z"
      },
      "length": {
        "value": 2,
        "unit": "days"
      },
      "reasonReference": [ {
        "reference": "Condition/8d57ca7d-25ce-43d1-99a9-e37817648711"
      } ]
    },
    "request": {
      "method": "PUT",
      "url": "Encounter/4227e805-a121-4fd6-a22b-7576b09a72bf"
    }
  }, {
    "fullUrl": "https://madie.cms.gov/Claim/79321e04-d237-4bbe-8e26-ff42e37fd392",
    "resource": {
      "resourceType": "Claim",
      "id": "79321e04-d237-4bbe-8e26-ff42e37fd392",
      "meta": {
        "profile": [ "http://hl7.org/fhir/us/qicore/StructureDefinition/qicore-claim" ]
      },
      "status": "active",
      "type": {
        "coding": [ {
          "system": "http://terminology.hl7.org/CodeSystem/claim-type",
          "code": "institutional"
        } ]
      },
      "use": "claim",
      "patient": {
        "reference": "Patient/f0de258a-3358-4f1d-a91d-e1c57a2cb61a"
      },
      "created": "2026-12-01",
      "provider": {
        "reference": "Practitioner/37f7c851-73bf-4a1a-b648-d631692839be"
      },
      "priority": {
        "coding": [ {
          "system": "http://terminology.hl7.org/CodeSystem/processpriority",
          "code": "normal"
        } ]
      },
      "diagnosis": [ {
        "sequence": 1,
        "diagnosisCodeableConcept": {
          "coding": [ {
            "system": "http://hl7.org/fhir/sid/icd-10-cm",
            "code": "I63.00"
          } ]
        },
        "type": [ {
          "coding": [ {
            "system": "http://terminology.hl7.org/CodeSystem/ex-diagnosistype",
            "code": "principal"
          } ]
        } ]
      } ],
      "insurance": [ {
        "sequence": 1,
        "focal": true,
        "coverage": {
          "reference": "Coverage/5fa041661c76ba66d9959367"
        }
      } ],
      "item": [ {
        "sequence": 1,
        "diagnosisSequence": [ 1 ],
        "productOrService": {
          "coding": [ {
            "system": "http://terminology.hl7.org/CodeSystem/ex-USCLS",
            "code": "99555"
          } ]
        },
        "encounter": [ {
          "reference": "Encounter/4227e805-a121-4fd6-a22b-7576b09a72bf"
        } ]
      } ]
    },
    "request": {
      "method": "PUT",
      "url": "Claim/79321e04-d237-4bbe-8e26-ff42e37fd392"
    }
  }, {
    "fullUrl": "https://madie.cms.gov/Coverage/e29f8cb8-23d2-41a3-9099-c3c5fd6636c9",
    "resource": {
      "resourceType": "Coverage",
      "id": "e29f8cb8-23d2-41a3-9099-c3c5fd6636c9",
      "meta": {
        "profile": [ "http://hl7.org/fhir/us/qicore/StructureDefinition/qicore-coverage" ]
      },
      "status": "active",
      "subscriberId": "523435",
      "beneficiary": {
        "reference": "Patient/f0de258a-3358-4f1d-a91d-e1c57a2cb61a"
      },
      "relationship": {
        "coding": [ {
          "system": "http://terminology.hl7.org/CodeSystem/subscriber-relationship",
          "code": "self"
        } ]
      },
      "payor": [ {
        "reference": "Organization/4476eb49-0416-4966-aaa1-bea1a0acc200"
      } ]
    },
    "request": {
      "method": "PUT",
      "url": "Coverage/e29f8cb8-23d2-41a3-9099-c3c5fd6636c9"
    }
  }, {
    "fullUrl": "https://madie.cms.gov/Organization/4476eb49-0416-4966-aaa1-bea1a0acc200",
    "resource": {
      "resourceType": "Organization",
      "id": "4476eb49-0416-4966-aaa1-bea1a0acc200",
      "meta": {
        "profile": [ "http://hl7.org/fhir/us/qicore/StructureDefinition/qicore-organization" ]
      },
      "identifier": [ {
        "use": "temp",
        "system": "urn:oid:2.16.840.1.113883.4.4",
        "value": "21-3259825"
      } ],
      "active": true,
      "type": [ {
        "coding": [ {
          "system": "http://terminology.hl7.org/CodeSystem/organization-type",
          "code": "pay",
          "display": "Payer"
        } ]
      } ],
      "name": "Blue Cross Blue Shield of Texas",
      "telecom": [ {
        "system": "phone",
        "value": "(+1) 972-766-6900"
      } ],
      "address": [ {
        "use": "billing",
        "type": "postal",
        "line": [ "P.O. Box 660044" ],
        "city": "Dallas",
        "state": "TX",
        "postalCode": "75266-0044",
        "country": "USA"
      } ]
    },
    "request": {
      "method": "PUT",
      "url": "Organization/4476eb49-0416-4966-aaa1-bea1a0acc200"
    }
  }, {
    "fullUrl": "https://madie.cms.gov/Practitioner/37f7c851-73bf-4a1a-b648-d631692839be",
    "resource": {
      "resourceType": "Practitioner",
      "id": "37f7c851-73bf-4a1a-b648-d631692839be",
      "meta": {
        "profile": [ "http://hl7.org/fhir/us/qicore/StructureDefinition/qicore-practitioner" ]
      },
      "identifier": [ {
        "system": "http://hl7.org/fhir/sid/us-npi",
        "value": "9999999896"
      } ],
      "name": [ {
        "family": "Evil",
        "prefix": [ "Dr" ]
      } ]
    },
    "request": {
      "method": "PUT",
      "url": "Practitioner/37f7c851-73bf-4a1a-b648-d631692839be"
    }
  }, {
    "fullUrl": "https://madie.cms.gov/MeasureReport/4ff51705-a19a-4068-a2c3-a5a5bcd78bef",
    "resource": {
      "resourceType": "MeasureReport",
      "id": "4ff51705-a19a-4068-a2c3-a5a5bcd78bef",
      "meta": {
        "profile": [ "http://hl7.org/fhir/us/cqfmeasures/StructureDefinition/test-case-cqfm" ]
      },
      "contained": [ {
        "resourceType": "Parameters",
        "id": "bf3dc345-87fb-469d-9374-0ff9e5bc77dc-parameters",
        "parameter": [ {
          "name": "subject",
          "valueString": "f0de258a-3358-4f1d-a91d-e1c57a2cb61a"
        } ]
      } ],
      "extension": [ {
        "url": "http://hl7.org/fhir/StructureDefinition/cqf-inputParameters",
        "valueReference": {
          "reference": "#bf3dc345-87fb-469d-9374-0ff9e5bc77dc-parameters"
        }
      }, {
        "url": "http://hl7.org/fhir/us/cqfmeasures/StructureDefinition/cqfm-testCaseDescription",
        "valueMarkdown": "with active flutter and abatement time removed"
      } ],
      "modifierExtension": [ {
        "url": "http://hl7.org/fhir/us/cqfmeasures/StructureDefinition/cqfm-isTestCase",
        "valueBoolean": true
      } ],
      "status": "complete",
      "type": "individual",
      "measure": "https://madie.cms.gov/Measure/CMS71FHIRSTKAnticoagAFFlutter",
      "period": {
        "start": "2026-01-01",
        "end": "2026-12-31"
      },
      "group": [ {
        "id": "Group_1",
        "population": [ {
          "id": "InitialPopulation_1",
          "code": {
            "coding": [ {
              "system": "http://terminology.hl7.org/CodeSystem/measure-population",
              "code": "initial-population",
              "display": "Initial Population"
            } ]
          },
          "count": 1
        }, {
          "id": "Denominator_1",
          "code": {
            "coding": [ {
              "system": "http://terminology.hl7.org/CodeSystem/measure-population",
              "code": "denominator",
              "display": "Denominator"
            } ]
          },
          "count": 1
        }, {
          "id": "DenominatorExclusion_1",
          "code": {
            "coding": [ {
              "system": "http://terminology.hl7.org/CodeSystem/measure-population",
              "code": "denominator-exclusion",
              "display": "Denominator Exclusion"
            } ]
          },
          "count": 0
        }, {
          "id": "Numerator_1",
          "code": {
            "coding": [ {
              "system": "http://terminology.hl7.org/CodeSystem/measure-population",
              "code": "numerator",
              "display": "Numerator"
            } ]
          },
          "count": 0
        }, {
          "id": "DenominatorException_1",
          "code": {
            "coding": [ {
              "system": "http://terminology.hl7.org/CodeSystem/measure-population",
              "code": "denominator-exception",
              "display": "Denominator Exception"
            } ]
          },
          "count": 0
        } ],
        "measureScore": {
          "value": 0.0
        }
      } ],
      "evaluatedResource": [ {
        "reference": "Patient/f0de258a-3358-4f1d-a91d-e1c57a2cb61a"
      }, {
        "reference": "Condition/8d57ca7d-25ce-43d1-99a9-e37817648711"
      }, {
        "reference": "Encounter/4227e805-a121-4fd6-a22b-7576b09a72bf"
      }, {
        "reference": "Claim/79321e04-d237-4bbe-8e26-ff42e37fd392"
      }, {
        "reference": "Coverage/e29f8cb8-23d2-41a3-9099-c3c5fd6636c9"
      }, {
        "reference": "Organization/4476eb49-0416-4966-aaa1-bea1a0acc200"
      }, {
        "reference": "Practitioner/37f7c851-73bf-4a1a-b648-d631692839be"
      } ]
    },
    "request": {
      "method": "PUT",
      "url": "MeasureReport/4ff51705-a19a-4068-a2c3-a5a5bcd78bef"
    }
  } ]
}