{
  "resourceType": "Bundle",
  "id": "633c9d040968f8012250fca5",
  "type": "transaction",
  "entry": [ {
    "fullUrl": "https://madie.cms.gov/Patient/2d694619-fb6d-43e5-8f56-4eb95752c7a7",
    "resource": {
      "resourceType": "Patient",
      "id": "2d694619-fb6d-43e5-8f56-4eb95752c7a7",
      "meta": {
        "profile": [ "http://hl7.org/fhir/us/qicore/StructureDefinition/qicore-patient" ]
      },
      "text": {
        "status": "generated",
        "div": "<div xmlns=\"http://www.w3.org/1999/xhtml\"><div class=\"hapiHeaderText\">CMOdurED_ED=1hrObs=1hrBFEnc <b>DENEXPASS </b></div><table class=\"hapiPropertyTable\"><tbody><tr><td>Identifier</td><td>c7d7fbb05b3fb095f038e7bb032293f972cd9bbdd4b9c869e38f2b84ac1213ac</td></tr><tr><td>Date of birth</td><td><span>18 September 1985</span></td></tr></tbody></table></div>"
      },
      "extension": [ {
        "url": "http://hl7.org/fhir/us/core/StructureDefinition/us-core-race",
        "extension": [ {
          "url": "ombCategory",
          "valueCoding": {
            "system": "urn:oid:2.16.840.1.113883.6.238",
            "code": "1002-5",
            "display": "American Indian or Alaska Native",
            "userSelected": true
          }
        }, {
          "url": "text",
          "valueString": "American Indian or Alaska Native"
        } ]
      }, {
        "url": "http://hl7.org/fhir/us/core/StructureDefinition/us-core-ethnicity",
        "extension": [ {
          "url": "ombCategory",
          "valueCoding": {
            "system": "urn:oid:2.16.840.1.113883.6.238",
            "code": "2135-2",
            "display": "Hispanic or Latino",
            "userSelected": true
          }
        }, {
          "url": "text",
          "valueString": "Hispanic or Latino"
        } ]
      } ],
      "identifier": [ {
        "type": {
          "coding": [ {
            "system": "http://terminology.hl7.org/CodeSystem/v2-0203",
            "code": "MR"
          } ]
        },
        "system": "https://bonnie-fhir.healthit.gov/",
        "value": "633c9d040968f8012250fca5"
      } ],
      "active": true,
      "name": [ {
        "use": "usual",
        "family": "DENEXPass",
        "given": [ "CMOdurEDED1hObs1hrBFEnc" ]
      } ],
      "gender": "female",
      "birthDate": "1986-09-18"
    },
    "request": {
      "method": "PUT",
      "url": "Patient/2d694619-fb6d-43e5-8f56-4eb95752c7a7"
    }
  }, {
    "fullUrl": "https://madie.cms.gov/Condition/8eb23bfe-db69-472c-a0b7-169a562e10f7",
    "resource": {
      "resourceType": "Condition",
      "id": "8eb23bfe-db69-472c-a0b7-169a562e10f7",
      "meta": {
        "profile": [ "http://hl7.org/fhir/us/qicore/StructureDefinition/qicore-condition-encounter-diagnosis" ]
      },
      "clinicalStatus": {
        "coding": [ {
          "system": "http://terminology.hl7.org/CodeSystem/condition-clinical",
          "code": "inactive"
        } ]
      },
      "verificationStatus": {
        "coding": [ {
          "system": "http://terminology.hl7.org/CodeSystem/condition-ver-status",
          "code": "confirmed"
        } ]
      },
      "category": [ {
        "coding": [ {
          "system": "http://terminology.hl7.org/CodeSystem/condition-category",
          "code": "encounter-diagnosis",
          "display": "Encounter Diagnosis"
        } ]
      } ],
      "code": {
        "coding": [ {
          "system": "http://hl7.org/fhir/sid/icd-10-cm",
          "code": "I48.20"
        }, {
          "system": "http://hl7.org/fhir/sid/icd-10-cm",
          "code": "I48.0"
        }, {
          "system": "http://snomed.info/sct",
          "code": "5370000"
        } ]
      },
      "subject": {
        "reference": "Patient/2d694619-fb6d-43e5-8f56-4eb95752c7a7"
      },
      "onsetDateTime": "2026-10-01T09:00:00.000Z",
      "abatementDateTime": "2026-10-12T00:15:00.000Z"
    },
    "request": {
      "method": "PUT",
      "url": "Condition/8eb23bfe-db69-472c-a0b7-169a562e10f7"
    }
  }, {
    "fullUrl": "https://madie.cms.gov/Encounter/f50a9c34-7be2-42ca-bf39-f571dd738e61",
    "resource": {
      "resourceType": "Encounter",
      "id": "f50a9c34-7be2-42ca-bf39-f571dd738e61",
      "meta": {
        "profile": [ "http://hl7.org/fhir/us/qicore/StructureDefinition/qicore-encounter" ]
      },
      "status": "finished",
      "class": {
        "system": "http://terminology.hl7.org/CodeSystem/v3-ActCode",
        "code": "EMER",
        "display": "emergency"
      },
      "type": [ {
        "coding": [ {
          "system": "http://snomed.info/sct",
          "code": "4525004"
        } ]
      } ],
      "subject": {
        "reference": "Patient/2d694619-fb6d-43e5-8f56-4eb95752c7a7"
      },
      "period": {
        "start": "2026-09-30T07:59:00.000Z",
        "end": "2026-09-30T08:00:00.000Z"
      },
      "length": {
        "value": 0,
        "unit": "days"
      }
    },
    "request": {
      "method": "PUT",
      "url": "Encounter/f50a9c34-7be2-42ca-bf39-f571dd738e61"
    }
  }, {
    "fullUrl": "https://madie.cms.gov/Encounter/6da1dc20-bf5f-42e4-8b35-9d9c289e128a",
    "resource": {
      "resourceType": "Encounter",
      "id": "6da1dc20-bf5f-42e4-8b35-9d9c289e128a",
      "meta": {
        "profile": [ "http://hl7.org/fhir/us/qicore/StructureDefinition/qicore-encounter" ]
      },
      "status": "finished",
      "class": {
        "system": "http://terminology.hl7.org/CodeSystem/v3-ActCode",
        "code": "OBSENC",
        "display": "observation encounter"
      },
      "type": [ {
        "coding": [ {
          "system": "http://snomed.info/sct",
          "code": "448951000124107"
        } ]
      } ],
      "subject": {
        "reference": "Patient/2d694619-fb6d-43e5-8f56-4eb95752c7a7"
      },
      "period": {
        "start": "2026-09-30T09:00:00.000Z",
        "end": "2026-09-30T09:01:00.000Z"
      },
      "length": {
        "value": 0,
        "unit": "days"
      }
    },
    "request": {
      "method": "PUT",
      "url": "Encounter/6da1dc20-bf5f-42e4-8b35-9d9c289e128a"
    }
  }, {
    "fullUrl": "https://madie.cms.gov/Encounter/611e2df5-e9eb-4acb-be2f-a97168bc9136",
    "resource": {
      "resourceType": "Encounter",
      "id": "611e2df5-e9eb-4acb-be2f-a97168bc9136",
      "meta": {
        "profile": [ "http://hl7.org/fhir/us/qicore/StructureDefinition/qicore-encounter" ]
      },
      "status": "finished",
      "class": {
        "system": "http://terminology.hl7.org/CodeSystem/v3-ActCode",
        "code": "IMP",
        "display": "inpatient encounter"
      },
      "type": [ {
        "coding": [ {
          "system": "http://snomed.info/sct",
          "code": "32485007"
        } ]
      } ],
      "subject": {
        "reference": "Patient/2d694619-fb6d-43e5-8f56-4eb95752c7a7"
      },
      "period": {
        "start": "2026-09-30T10:01:00.000Z",
        "end": "2026-10-12T00:15:00.000Z"
      },
      "length": {
        "value": 12,
        "unit": "days"
      },
      "reasonReference": [ {
        "reference": "Condition/8eb23bfe-db69-472c-a0b7-169a562e10f7"
      } ]
    },
    "request": {
      "method": "PUT",
      "url": "Encounter/611e2df5-e9eb-4acb-be2f-a97168bc9136"
    }
  }, {
    "fullUrl": "https://madie.cms.gov/Claim/3ee7ae3f-81cf-4fa7-a327-ef1625494633",
    "resource": {
      "resourceType": "Claim",
      "id": "3ee7ae3f-81cf-4fa7-a327-ef1625494633",
      "meta": {
        "profile": [ "http://hl7.org/fhir/us/qicore/StructureDefinition/qicore-claim" ]
      },
      "status": "active",
      "type": {
        "coding": [ {
          "system": "http://terminology.hl7.org/CodeSystem/claim-type",
          "code": "institutional"
        } ]
      },
      "use": "claim",
      "patient": {
        "reference": "Patient/2d694619-fb6d-43e5-8f56-4eb95752c7a7"
      },
      "created": "2026-12-01",
      "provider": {
        "reference": "Practitioner/bfdc46f5-0235-44e0-a23d-3f4163e2fa1f"
      },
      "priority": {
        "coding": [ {
          "system": "http://terminology.hl7.org/CodeSystem/processpriority",
          "code": "normal"
        } ]
      },
      "diagnosis": [ {
        "sequence": 1,
        "diagnosisCodeableConcept": {
          "coding": [ {
            "system": "http://hl7.org/fhir/sid/icd-10-cm",
            "code": "I63.00"
          } ]
        },
        "type": [ {
          "coding": [ {
            "system": "http://terminology.hl7.org/CodeSystem/ex-diagnosistype",
            "code": "principal"
          } ]
        } ]
      } ],
      "insurance": [ {
        "sequence": 1,
        "focal": true,
        "coverage": {
          "reference": "Coverage/5fa041661c76ba66d9959367"
        }
      } ],
      "item": [ {
        "sequence": 1,
        "diagnosisSequence": [ 1 ],
        "productOrService": {
          "coding": [ {
            "system": "http://terminology.hl7.org/CodeSystem/ex-USCLS",
            "code": "99555"
          } ]
        },
        "encounter": [ {
          "reference": "Encounter/611e2df5-e9eb-4acb-be2f-a97168bc9136"
        } ]
      } ]
    },
    "request": {
      "method": "PUT",
      "url": "Claim/3ee7ae3f-81cf-4fa7-a327-ef1625494633"
    }
  }, {
    "fullUrl": "https://madie.cms.gov/ServiceRequest/ca38d09e-4145-4595-886e-a8c4baccd239",
    "resource": {
      "resourceType": "ServiceRequest",
      "id": "ca38d09e-4145-4595-886e-a8c4baccd239",
      "meta": {
        "profile": [ "http://hl7.org/fhir/us/qicore/StructureDefinition/qicore-servicerequest" ]
      },
      "status": "active",
      "intent": "order",
      "code": {
        "coding": [ {
          "system": "http://snomed.info/sct",
          "code": "133918004"
        } ]
      },
      "subject": {
        "reference": "Patient/2d694619-fb6d-43e5-8f56-4eb95752c7a7"
      },
      "authoredOn": "2026-09-30T08:00:00.000Z"
    },
    "request": {
      "method": "PUT",
      "url": "ServiceRequest/ca38d09e-4145-4595-886e-a8c4baccd239"
    }
  }, {
    "fullUrl": "https://madie.cms.gov/Coverage/7f49b613-6699-4c81-8b79-a93a71d111b9",
    "resource": {
      "resourceType": "Coverage",
      "id": "7f49b613-6699-4c81-8b79-a93a71d111b9",
      "status": "active",
      "subscriberId": "523435",
      "beneficiary": {
        "reference": "Patient/2d694619-fb6d-43e5-8f56-4eb95752c7a7"
      },
      "relationship": {
        "coding": [ {
          "system": "http://terminology.hl7.org/CodeSystem/subscriber-relationship",
          "code": "self"
        } ]
      },
      "period": {
        "start": "1986-09-18T08:00:00.000Z"
      },
      "payor": [ {
        "reference": "Organization/5d41c764-df53-4573-b1f4-aae2009e2458"
      } ]
    },
    "request": {
      "method": "PUT",
      "url": "Coverage/7f49b613-6699-4c81-8b79-a93a71d111b9"
    }
  }, {
    "fullUrl": "https://madie.cms.gov/Condition/cfb2c378-354e-4de9-a130-7550070ab160",
    "resource": {
      "resourceType": "Condition",
      "id": "cfb2c378-354e-4de9-a130-7550070ab160",
      "meta": {
        "profile": [ "http://hl7.org/fhir/us/qicore/StructureDefinition/qicore-condition-encounter-diagnosis" ]
      },
      "clinicalStatus": {
        "coding": [ {
          "system": "http://terminology.hl7.org/CodeSystem/condition-clinical",
          "code": "active"
        } ]
      },
      "verificationStatus": {
        "coding": [ {
          "system": "http://terminology.hl7.org/CodeSystem/condition-ver-status",
          "code": "confirmed"
        } ]
      },
      "category": [ {
        "coding": [ {
          "system": "http://terminology.hl7.org/CodeSystem/condition-category",
          "code": "encounter-diagnosis",
          "display": "Encounter Diagnosis"
        } ]
      } ],
      "code": {
        "coding": [ {
          "system": "http://snomed.info/sct",
          "version": "2021-09",
          "code": "111297002",
          "display": "Nonparalytic stroke (disorder)",
          "userSelected": true
        } ]
      },
      "subject": {
        "reference": "Patient/2d694619-fb6d-43e5-8f56-4eb95752c7a7"
      },
      "recordedDate": "2026-10-13T08:00:00.000Z"
    },
    "request": {
      "method": "PUT",
      "url": "Condition/cfb2c378-354e-4de9-a130-7550070ab160"
    }
  }, {
    "fullUrl": "https://madie.cms.gov/Organization/5d41c764-df53-4573-b1f4-aae2009e2458",
    "resource": {
      "resourceType": "Organization",
      "id": "5d41c764-df53-4573-b1f4-aae2009e2458",
      "meta": {
        "profile": [ "http://hl7.org/fhir/us/qicore/StructureDefinition/qicore-organization" ]
      },
      "identifier": [ {
        "use": "temp",
        "system": "urn:oid:2.16.840.1.113883.4.4",
        "value": "21-3259825"
      } ],
      "active": true,
      "type": [ {
        "coding": [ {
          "system": "http://terminology.hl7.org/CodeSystem/organization-type",
          "code": "pay",
          "display": "Payer"
        } ]
      } ],
      "name": "Blue Cross Blue Shield of Texas",
      "telecom": [ {
        "system": "phone",
        "value": "(+1) 972-766-6900"
      } ],
      "address": [ {
        "use": "billing",
        "type": "postal",
        "line": [ "P.O. Box 660044" ],
        "city": "Dallas",
        "state": "TX",
        "postalCode": "75266-0044",
        "country": "USA"
      } ]
    },
    "request": {
      "method": "PUT",
      "url": "Organization/5d41c764-df53-4573-b1f4-aae2009e2458"
    }
  }, {
    "fullUrl": "https://madie.cms.gov/Practitioner/bfdc46f5-0235-44e0-a23d-3f4163e2fa1f",
    "resource": {
      "resourceType": "Practitioner",
      "id": "bfdc46f5-0235-44e0-a23d-3f4163e2fa1f",
      "meta": {
        "profile": [ "http://hl7.org/fhir/us/qicore/StructureDefinition/qicore-practitioner" ]
      },
      "identifier": [ {
        "system": "http://hl7.org/fhir/sid/us-npi",
        "value": "9999999896"
      } ],
      "name": [ {
        "family": "Evil",
        "prefix": [ "Dr" ]
      } ]
    },
    "request": {
      "method": "PUT",
      "url": "Practitioner/bfdc46f5-0235-44e0-a23d-3f4163e2fa1f"
    }
  }, {
    "fullUrl": "https://madie.cms.gov/MeasureReport/0cf3a1f7-70c7-4c00-8b94-3b1ac687ad2a",
    "resource": {
      "resourceType": "MeasureReport",
      "id": "0cf3a1f7-70c7-4c00-8b94-3b1ac687ad2a",
      "meta": {
        "profile": [ "http://hl7.org/fhir/us/cqfmeasures/StructureDefinition/test-case-cqfm" ]
      },
      "contained": [ {
        "resourceType": "Parameters",
        "id": "d103a5ba-f1e6-4ee5-829b-222a1c74975c-parameters",
        "parameter": [ {
          "name": "subject",
          "valueString": "2d694619-fb6d-43e5-8f56-4eb95752c7a7"
        } ]
      } ],
      "extension": [ {
        "url": "http://hl7.org/fhir/StructureDefinition/cqf-inputParameters",
        "valueReference": {
          "reference": "#d103a5ba-f1e6-4ee5-829b-222a1c74975c-parameters"
        }
      }, {
        "url": "http://hl7.org/fhir/us/cqfmeasures/StructureDefinition/cqfm-testCaseDescription",
        "valueMarkdown": "Patient receives CMO during ED. ED ends 60 min before Obs start and Obs ends 60 min before  inpatient start.  Testing HospitalizationWithObservation function\n"
      } ],
      "modifierExtension": [ {
        "url": "http://hl7.org/fhir/us/cqfmeasures/StructureDefinition/cqfm-isTestCase",
        "valueBoolean": true
      } ],
      "status": "complete",
      "type": "individual",
      "measure": "https://madie.cms.gov/Measure/CMS71FHIRSTKAnticoagAFFlutter",
      "period": {
        "start": "2026-01-01",
        "end": "2026-12-31"
      },
      "group": [ {
        "id": "Group_1",
        "population": [ {
          "id": "InitialPopulation_1",
          "code": {
            "coding": [ {
              "system": "http://terminology.hl7.org/CodeSystem/measure-population",
              "code": "initial-population",
              "display": "Initial Population"
            } ]
          },
          "count": 1
        }, {
          "id": "Denominator_1",
          "code": {
            "coding": [ {
              "system": "http://terminology.hl7.org/CodeSystem/measure-population",
              "code": "denominator",
              "display": "Denominator"
            } ]
          },
          "count": 1
        }, {
          "id": "DenominatorExclusion_1",
          "code": {
            "coding": [ {
              "system": "http://terminology.hl7.org/CodeSystem/measure-population",
              "code": "denominator-exclusion",
              "display": "Denominator Exclusion"
            } ]
          },
          "count": 1
        }, {
          "id": "Numerator_1",
          "code": {
            "coding": [ {
              "system": "http://terminology.hl7.org/CodeSystem/measure-population",
              "code": "numerator",
              "display": "Numerator"
            } ]
          },
          "count": 0
        }, {
          "id": "DenominatorException_1",
          "code": {
            "coding": [ {
              "system": "http://terminology.hl7.org/CodeSystem/measure-population",
              "code": "denominator-exception",
              "display": "Denominator Exception"
            } ]
          },
          "count": 0
        } ],
        "measureScore": {
          "value": 0.0
        }
      } ],
      "evaluatedResource": [ {
        "reference": "Patient/2d694619-fb6d-43e5-8f56-4eb95752c7a7"
      }, {
        "reference": "Condition/8eb23bfe-db69-472c-a0b7-169a562e10f7"
      }, {
        "reference": "Encounter/f50a9c34-7be2-42ca-bf39-f571dd738e61"
      }, {
        "reference": "Encounter/6da1dc20-bf5f-42e4-8b35-9d9c289e128a"
      }, {
        "reference": "Encounter/611e2df5-e9eb-4acb-be2f-a97168bc9136"
      }, {
        "reference": "Claim/3ee7ae3f-81cf-4fa7-a327-ef1625494633"
      }, {
        "reference": "ServiceRequest/ca38d09e-4145-4595-886e-a8c4baccd239"
      }, {
        "reference": "Coverage/7f49b613-6699-4c81-8b79-a93a71d111b9"
      }, {
        "reference": "Condition/cfb2c378-354e-4de9-a130-7550070ab160"
      }, {
        "reference": "Organization/5d41c764-df53-4573-b1f4-aae2009e2458"
      }, {
        "reference": "Practitioner/bfdc46f5-0235-44e0-a23d-3f4163e2fa1f"
      } ]
    },
    "request": {
      "method": "PUT",
      "url": "MeasureReport/0cf3a1f7-70c7-4c00-8b94-3b1ac687ad2a"
    }
  } ]
}