{
  "resourceType": "Bundle",
  "id": "633c9d030968f8012250fc91",
  "type": "transaction",
  "entry": [ {
    "fullUrl": "https://madie.cms.gov/Patient/4151585a-f621-4de5-91df-4e4227e2165e",
    "resource": {
      "resourceType": "Patient",
      "id": "4151585a-f621-4de5-91df-4e4227e2165e",
      "meta": {
        "profile": [ "http://hl7.org/fhir/us/qicore/StructureDefinition/qicore-patient" ]
      },
      "text": {
        "status": "generated",
        "div": "<div xmlns=\"http://www.w3.org/1999/xhtml\"><div class=\"hapiHeaderText\">CustomCode <b>NUMERFAIL </b></div><table class=\"hapiPropertyTable\"><tbody><tr><td>Identifier</td><td>067c4f753ca8fc3fba90168757c33218</td></tr><tr><td>Date of birth</td><td><span>21 August 1994</span></td></tr></tbody></table></div>"
      },
      "extension": [ {
        "url": "http://hl7.org/fhir/us/core/StructureDefinition/us-core-race",
        "extension": [ {
          "url": "ombCategory",
          "valueCoding": {
            "system": "urn:oid:2.16.840.1.113883.6.238",
            "code": "1002-5",
            "display": "American Indian or Alaska Native",
            "userSelected": true
          }
        }, {
          "url": "text",
          "valueString": "American Indian or Alaska Native"
        } ]
      }, {
        "url": "http://hl7.org/fhir/us/core/StructureDefinition/us-core-ethnicity",
        "extension": [ {
          "url": "ombCategory",
          "valueCoding": {
            "system": "urn:oid:2.16.840.1.113883.6.238",
            "code": "2135-2",
            "display": "Hispanic or Latino",
            "userSelected": true
          }
        }, {
          "url": "text",
          "valueString": "Hispanic or Latino"
        } ]
      } ],
      "identifier": [ {
        "type": {
          "coding": [ {
            "system": "http://terminology.hl7.org/CodeSystem/v2-0203",
            "code": "MR"
          } ]
        },
        "system": "https://bonnie-fhir.healthit.gov/",
        "value": "633c9d030968f8012250fc91"
      } ],
      "active": true,
      "name": [ {
        "use": "usual",
        "family": "NUMERFail",
        "given": [ "CustomCode" ]
      } ],
      "gender": "male",
      "birthDate": "1995-08-21"
    },
    "request": {
      "method": "PUT",
      "url": "Patient/4151585a-f621-4de5-91df-4e4227e2165e"
    }
  }, {
    "fullUrl": "https://madie.cms.gov/Encounter/176a1c29-4ad6-4a30-9d68-c0edd15cac94",
    "resource": {
      "resourceType": "Encounter",
      "id": "176a1c29-4ad6-4a30-9d68-c0edd15cac94",
      "meta": {
        "profile": [ "http://hl7.org/fhir/us/qicore/StructureDefinition/qicore-encounter" ]
      },
      "status": "finished",
      "class": {
        "system": "http://terminology.hl7.org/CodeSystem/v3-ActCode",
        "code": "IMP",
        "display": "inpatient encounter"
      },
      "type": [ {
        "coding": [ {
          "system": "http://snomed.info/sct",
          "code": "32485007"
        } ]
      } ],
      "subject": {
        "reference": "Patient/4151585a-f621-4de5-91df-4e4227e2165e"
      },
      "period": {
        "start": "2026-10-10T09:30:00.000Z",
        "end": "2026-10-12T10:30:00.000Z"
      },
      "length": {
        "value": 2,
        "unit": "days"
      }
    },
    "request": {
      "method": "PUT",
      "url": "Encounter/176a1c29-4ad6-4a30-9d68-c0edd15cac94"
    }
  }, {
    "fullUrl": "https://madie.cms.gov/MedicationRequest/a7a8b0c0-9879-4a2f-bbc3-b1e1e2d96055",
    "resource": {
      "resourceType": "MedicationRequest",
      "id": "a7a8b0c0-9879-4a2f-bbc3-b1e1e2d96055",
      "meta": {
        "profile": [ "http://hl7.org/fhir/us/qicore/StructureDefinition/qicore-medicationrequest" ]
      },
      "status": "active",
      "intent": "order",
      "medicationCodeableConcept": {
        "coding": [ {
          "system": "http://www.nlm.nih.gov/research/umls/rxnorm",
          "code": "1006608"
        } ]
      },
      "subject": {
        "reference": "Patient/4151585a-f621-4de5-91df-4e4227e2165e"
      },
      "authoredOn": "2026-10-10T09:30:00.000Z",
      "requester": {
        "reference": "Practitioner/example"
      }
    },
    "request": {
      "method": "PUT",
      "url": "MedicationRequest/a7a8b0c0-9879-4a2f-bbc3-b1e1e2d96055"
    }
  }, {
    "fullUrl": "https://madie.cms.gov/Coverage/5b3ed3be-8677-4606-b471-c8dc8cf38b11",
    "resource": {
      "resourceType": "Coverage",
      "id": "5b3ed3be-8677-4606-b471-c8dc8cf38b11",
      "meta": {
        "profile": [ "http://hl7.org/fhir/us/qicore/StructureDefinition/qicore-coverage" ]
      },
      "status": "active",
      "subscriberId": "523435",
      "beneficiary": {
        "reference": "Patient/4151585a-f621-4de5-91df-4e4227e2165e"
      },
      "relationship": {
        "coding": [ {
          "system": "http://terminology.hl7.org/CodeSystem/subscriber-relationship",
          "code": "self"
        } ]
      },
      "payor": [ {
        "reference": "Organization/d7d1e3b6-9a3b-49c1-a6f9-4f6253ff9ec6"
      } ]
    },
    "request": {
      "method": "PUT",
      "url": "Coverage/5b3ed3be-8677-4606-b471-c8dc8cf38b11"
    }
  }, {
    "fullUrl": "https://madie.cms.gov/Procedure/12b81f74-569a-4e5e-8eef-589bd4ea2448",
    "resource": {
      "resourceType": "Procedure",
      "id": "12b81f74-569a-4e5e-8eef-589bd4ea2448",
      "meta": {
        "profile": [ "http://hl7.org/fhir/us/qicore/StructureDefinition/qicore-procedure" ]
      },
      "extension": [ {
        "url": "http://hl7.org/fhir/us/qicore/StructureDefinition/qicore-recorded",
        "valueDateTime": "2026-11-19T13:35:00.000Z"
      } ],
      "status": "completed",
      "code": {
        "coding": [ {
          "system": "http://www.cms.gov/Medicare/Coding/ICD10",
          "code": "02560ZZ"
        }, {
          "system": "http://snomed.info/sct",
          "code": "175095005"
        } ]
      },
      "subject": {
        "reference": "Patient/4151585a-f621-4de5-91df-4e4227e2165e"
      },
      "performedPeriod": {
        "start": "2026-10-10T08:30:00.000Z"
      }
    },
    "request": {
      "method": "PUT",
      "url": "Procedure/12b81f74-569a-4e5e-8eef-589bd4ea2448"
    }
  }, {
    "fullUrl": "https://madie.cms.gov/Condition/411c3e4e-3254-4939-b91d-bcac4edb44bb",
    "resource": {
      "resourceType": "Condition",
      "id": "411c3e4e-3254-4939-b91d-bcac4edb44bb",
      "meta": {
        "profile": [ "http://hl7.org/fhir/us/qicore/StructureDefinition/qicore-condition-encounter-diagnosis" ]
      },
      "clinicalStatus": {
        "coding": [ {
          "system": "http://terminology.hl7.org/CodeSystem/condition-clinical",
          "code": "active"
        } ]
      },
      "verificationStatus": {
        "coding": [ {
          "system": "http://terminology.hl7.org/CodeSystem/condition-ver-status",
          "code": "confirmed"
        } ]
      },
      "category": [ {
        "coding": [ {
          "system": "http://terminology.hl7.org/CodeSystem/condition-category",
          "code": "encounter-diagnosis",
          "display": "Encounter Diagnosis"
        } ]
      } ],
      "code": {
        "coding": [ {
          "system": "http://snomed.info/sct",
          "version": "2021-09",
          "code": "111297002",
          "display": "Nonparalytic stroke (disorder)",
          "userSelected": true
        } ]
      },
      "subject": {
        "reference": "Patient/4151585a-f621-4de5-91df-4e4227e2165e"
      },
      "recordedDate": "2026-10-13T08:00:00.000Z"
    },
    "request": {
      "method": "PUT",
      "url": "Condition/411c3e4e-3254-4939-b91d-bcac4edb44bb"
    }
  }, {
    "fullUrl": "https://madie.cms.gov/Claim/d86d1c43-8de3-4ef6-bfc6-af9fd598988a",
    "resource": {
      "resourceType": "Claim",
      "id": "d86d1c43-8de3-4ef6-bfc6-af9fd598988a",
      "meta": {
        "profile": [ "http://hl7.org/fhir/us/qicore/StructureDefinition/qicore-claim" ]
      },
      "status": "active",
      "type": {
        "coding": [ {
          "system": "http://terminology.hl7.org/CodeSystem/claim-type",
          "code": "institutional"
        } ]
      },
      "use": "claim",
      "patient": {
        "reference": "Patient/4151585a-f621-4de5-91df-4e4227e2165e"
      },
      "created": "2026-12-01",
      "provider": {
        "reference": "Practitioner/0b996f6f-4c0a-451f-8be6-21577809685b"
      },
      "priority": {
        "coding": [ {
          "system": "http://terminology.hl7.org/CodeSystem/processpriority",
          "code": "normal"
        } ]
      },
      "diagnosis": [ {
        "sequence": 1,
        "diagnosisCodeableConcept": {
          "coding": [ {
            "system": "http://hl7.org/fhir/sid/icd-10-cm",
            "code": "I63.00"
          } ]
        },
        "type": [ {
          "coding": [ {
            "system": "http://terminology.hl7.org/CodeSystem/ex-diagnosistype",
            "code": "principal"
          } ]
        } ]
      } ],
      "insurance": [ {
        "sequence": 1,
        "focal": true,
        "coverage": {
          "reference": "Coverage/5fa041661c76ba66d9959367"
        }
      } ],
      "item": [ {
        "sequence": 1,
        "diagnosisSequence": [ 1 ],
        "productOrService": {
          "coding": [ {
            "system": "http://terminology.hl7.org/CodeSystem/ex-USCLS",
            "code": "99555"
          } ]
        },
        "encounter": [ {
          "reference": "Encounter/176a1c29-4ad6-4a30-9d68-c0edd15cac94"
        } ]
      } ]
    },
    "request": {
      "method": "PUT",
      "url": "Claim/d86d1c43-8de3-4ef6-bfc6-af9fd598988a"
    }
  }, {
    "fullUrl": "https://madie.cms.gov/Organization/d7d1e3b6-9a3b-49c1-a6f9-4f6253ff9ec6",
    "resource": {
      "resourceType": "Organization",
      "id": "d7d1e3b6-9a3b-49c1-a6f9-4f6253ff9ec6",
      "meta": {
        "profile": [ "http://hl7.org/fhir/us/qicore/StructureDefinition/qicore-organization" ]
      },
      "identifier": [ {
        "use": "temp",
        "system": "urn:oid:2.16.840.1.113883.4.4",
        "value": "21-3259825"
      } ],
      "active": true,
      "type": [ {
        "coding": [ {
          "system": "http://terminology.hl7.org/CodeSystem/organization-type",
          "code": "pay",
          "display": "Payer"
        } ]
      } ],
      "name": "Blue Cross Blue Shield of Texas",
      "telecom": [ {
        "system": "phone",
        "value": "(+1) 972-766-6900"
      } ],
      "address": [ {
        "use": "billing",
        "type": "postal",
        "line": [ "P.O. Box 660044" ],
        "city": "Dallas",
        "state": "TX",
        "postalCode": "75266-0044",
        "country": "USA"
      } ]
    },
    "request": {
      "method": "PUT",
      "url": "Organization/d7d1e3b6-9a3b-49c1-a6f9-4f6253ff9ec6"
    }
  }, {
    "fullUrl": "https://madie.cms.gov/Practitioner/0b996f6f-4c0a-451f-8be6-21577809685b",
    "resource": {
      "resourceType": "Practitioner",
      "id": "0b996f6f-4c0a-451f-8be6-21577809685b",
      "meta": {
        "profile": [ "http://hl7.org/fhir/us/qicore/StructureDefinition/qicore-practitioner" ]
      },
      "identifier": [ {
        "system": "http://hl7.org/fhir/sid/us-npi",
        "value": "9999999896"
      } ],
      "name": [ {
        "family": "Evil",
        "prefix": [ "Dr" ]
      } ]
    },
    "request": {
      "method": "PUT",
      "url": "Practitioner/0b996f6f-4c0a-451f-8be6-21577809685b"
    }
  }, {
    "fullUrl": "https://madie.cms.gov/MeasureReport/472a47a7-3e90-405a-8663-f1f4ae6d2739",
    "resource": {
      "resourceType": "MeasureReport",
      "id": "472a47a7-3e90-405a-8663-f1f4ae6d2739",
      "meta": {
        "profile": [ "http://hl7.org/fhir/us/cqfmeasures/StructureDefinition/test-case-cqfm" ]
      },
      "contained": [ {
        "resourceType": "Parameters",
        "id": "641a2e63-0e6b-4f52-9dd1-28ee7236b35b-parameters",
        "parameter": [ {
          "name": "subject",
          "valueString": "4151585a-f621-4de5-91df-4e4227e2165e"
        } ]
      } ],
      "extension": [ {
        "url": "http://hl7.org/fhir/StructureDefinition/cqf-inputParameters",
        "valueReference": {
          "reference": "#641a2e63-0e6b-4f52-9dd1-28ee7236b35b-parameters"
        }
      }, {
        "url": "http://hl7.org/fhir/us/cqfmeasures/StructureDefinition/cqfm-testCaseDescription",
        "valueMarkdown": "Patient is 18 with Non-Elective Inpatient Encounter (LOS 120 days) with principal diagnosis of ischemic stroke ends during MP received medication not found in anticoagulant value set during IP encounter\n"
      } ],
      "modifierExtension": [ {
        "url": "http://hl7.org/fhir/us/cqfmeasures/StructureDefinition/cqfm-isTestCase",
        "valueBoolean": true
      } ],
      "status": "complete",
      "type": "individual",
      "measure": "https://madie.cms.gov/Measure/CMS71FHIRSTKAnticoagAFFlutter",
      "period": {
        "start": "2026-01-01",
        "end": "2026-12-31"
      },
      "group": [ {
        "id": "Group_1",
        "population": [ {
          "id": "InitialPopulation_1",
          "code": {
            "coding": [ {
              "system": "http://terminology.hl7.org/CodeSystem/measure-population",
              "code": "initial-population",
              "display": "Initial Population"
            } ]
          },
          "count": 1
        }, {
          "id": "Denominator_1",
          "code": {
            "coding": [ {
              "system": "http://terminology.hl7.org/CodeSystem/measure-population",
              "code": "denominator",
              "display": "Denominator"
            } ]
          },
          "count": 1
        }, {
          "id": "DenominatorExclusion_1",
          "code": {
            "coding": [ {
              "system": "http://terminology.hl7.org/CodeSystem/measure-population",
              "code": "denominator-exclusion",
              "display": "Denominator Exclusion"
            } ]
          },
          "count": 0
        }, {
          "id": "Numerator_1",
          "code": {
            "coding": [ {
              "system": "http://terminology.hl7.org/CodeSystem/measure-population",
              "code": "numerator",
              "display": "Numerator"
            } ]
          },
          "count": 0
        }, {
          "id": "DenominatorException_1",
          "code": {
            "coding": [ {
              "system": "http://terminology.hl7.org/CodeSystem/measure-population",
              "code": "denominator-exception",
              "display": "Denominator Exception"
            } ]
          },
          "count": 0
        } ],
        "measureScore": {
          "value": 0.0
        }
      } ],
      "evaluatedResource": [ {
        "reference": "Patient/4151585a-f621-4de5-91df-4e4227e2165e"
      }, {
        "reference": "Encounter/176a1c29-4ad6-4a30-9d68-c0edd15cac94"
      }, {
        "reference": "MedicationRequest/a7a8b0c0-9879-4a2f-bbc3-b1e1e2d96055"
      }, {
        "reference": "Coverage/5b3ed3be-8677-4606-b471-c8dc8cf38b11"
      }, {
        "reference": "Procedure/12b81f74-569a-4e5e-8eef-589bd4ea2448"
      }, {
        "reference": "Condition/411c3e4e-3254-4939-b91d-bcac4edb44bb"
      }, {
        "reference": "Claim/d86d1c43-8de3-4ef6-bfc6-af9fd598988a"
      }, {
        "reference": "Organization/d7d1e3b6-9a3b-49c1-a6f9-4f6253ff9ec6"
      }, {
        "reference": "Practitioner/0b996f6f-4c0a-451f-8be6-21577809685b"
      } ]
    },
    "request": {
      "method": "PUT",
      "url": "MeasureReport/472a47a7-3e90-405a-8663-f1f4ae6d2739"
    }
  } ]
}