{
  "resourceType": "Bundle",
  "id": "633c9d040968f8012250fcad",
  "type": "transaction",
  "entry": [ {
    "fullUrl": "https://madie.cms.gov/Patient/fd13e14c-cd97-4e81-9a69-e638b0a1fa58",
    "resource": {
      "resourceType": "Patient",
      "id": "fd13e14c-cd97-4e81-9a69-e638b0a1fa58",
      "meta": {
        "profile": [ "http://hl7.org/fhir/us/qicore/StructureDefinition/qicore-patient" ]
      },
      "text": {
        "status": "generated",
        "div": "<div xmlns=\"http://www.w3.org/1999/xhtml\"><div class=\"hapiHeaderText\">MultipleIPEncounter <b>IPPFAIL </b></div><table class=\"hapiPropertyTable\"><tbody><tr><td>Identifier</td><td>946910ea4598e45468b2565ed3cdbc9e</td></tr><tr><td>Date of birth</td><td><span>01 December 1960</span></td></tr></tbody></table></div>"
      },
      "extension": [ {
        "url": "http://hl7.org/fhir/us/core/StructureDefinition/us-core-race",
        "extension": [ {
          "url": "ombCategory",
          "valueCoding": {
            "system": "urn:oid:2.16.840.1.113883.6.238",
            "code": "1002-5",
            "display": "American Indian or Alaska Native",
            "userSelected": true
          }
        }, {
          "url": "text",
          "valueString": "American Indian or Alaska Native"
        } ]
      }, {
        "url": "http://hl7.org/fhir/us/core/StructureDefinition/us-core-ethnicity",
        "extension": [ {
          "url": "ombCategory",
          "valueCoding": {
            "system": "urn:oid:2.16.840.1.113883.6.238",
            "code": "2135-2",
            "display": "Hispanic or Latino",
            "userSelected": true
          }
        }, {
          "url": "text",
          "valueString": "Hispanic or Latino"
        } ]
      } ],
      "identifier": [ {
        "type": {
          "coding": [ {
            "system": "http://terminology.hl7.org/CodeSystem/v2-0203",
            "code": "MR"
          } ]
        },
        "system": "https://bonnie-fhir.healthit.gov/",
        "value": "633c9d040968f8012250fcad"
      } ],
      "active": true,
      "name": [ {
        "use": "usual",
        "family": "IPPFail",
        "given": [ "MultipleIPEncounter" ]
      } ],
      "gender": "male",
      "birthDate": "1961-12-01"
    },
    "request": {
      "method": "PUT",
      "url": "Patient/fd13e14c-cd97-4e81-9a69-e638b0a1fa58"
    }
  }, {
    "fullUrl": "https://madie.cms.gov/Encounter/e14c7d6b-c664-4d7d-9cca-365102a320b0",
    "resource": {
      "resourceType": "Encounter",
      "id": "e14c7d6b-c664-4d7d-9cca-365102a320b0",
      "meta": {
        "profile": [ "http://hl7.org/fhir/us/qicore/StructureDefinition/qicore-encounter" ]
      },
      "status": "finished",
      "class": {
        "system": "http://terminology.hl7.org/CodeSystem/v3-ActCode",
        "code": "EMER",
        "display": "emergency"
      },
      "type": [ {
        "coding": [ {
          "system": "http://snomed.info/sct",
          "code": "4525004"
        } ]
      } ],
      "subject": {
        "reference": "Patient/fd13e14c-cd97-4e81-9a69-e638b0a1fa58"
      },
      "period": {
        "start": "2026-02-08T08:00:00.000Z",
        "end": "2026-02-08T08:15:00.000Z"
      },
      "length": {
        "value": 0,
        "unit": "days"
      },
      "reasonReference": [ {
        "reference": "Condition/6ee56cae-0d94-42ed-b767-122f74621ecc"
      } ]
    },
    "request": {
      "method": "PUT",
      "url": "Encounter/e14c7d6b-c664-4d7d-9cca-365102a320b0"
    }
  }, {
    "fullUrl": "https://madie.cms.gov/Encounter/2840bcdb-eb55-4a4c-97e6-f1c7117aac28",
    "resource": {
      "resourceType": "Encounter",
      "id": "2840bcdb-eb55-4a4c-97e6-f1c7117aac28",
      "meta": {
        "profile": [ "http://hl7.org/fhir/us/qicore/StructureDefinition/qicore-encounter" ]
      },
      "status": "finished",
      "class": {
        "system": "http://terminology.hl7.org/CodeSystem/v3-ActCode",
        "code": "IMP",
        "display": "inpatient encounter"
      },
      "type": [ {
        "coding": [ {
          "system": "http://snomed.info/sct",
          "code": "183452005"
        } ]
      } ],
      "subject": {
        "reference": "Patient/fd13e14c-cd97-4e81-9a69-e638b0a1fa58"
      },
      "period": {
        "start": "2026-02-08T08:20:00.000Z",
        "end": "2026-02-10T08:15:00.000Z"
      },
      "reasonReference": [ {
        "reference": "Condition/5a8b36b0-70ef-4d1f-b6b8-1d3f0ef7f4f9"
      } ]
    },
    "request": {
      "method": "PUT",
      "url": "Encounter/2840bcdb-eb55-4a4c-97e6-f1c7117aac28"
    }
  }, {
    "fullUrl": "https://madie.cms.gov/Encounter/23b1d014-1944-4708-8cf9-e9adc614c955",
    "resource": {
      "resourceType": "Encounter",
      "id": "23b1d014-1944-4708-8cf9-e9adc614c955",
      "meta": {
        "profile": [ "http://hl7.org/fhir/us/qicore/StructureDefinition/qicore-encounter" ]
      },
      "status": "finished",
      "class": {
        "system": "http://terminology.hl7.org/CodeSystem/v3-ActCode",
        "code": "IMP",
        "display": "inpatient encounter"
      },
      "type": [ {
        "coding": [ {
          "system": "http://snomed.info/sct",
          "code": "183452005"
        } ]
      } ],
      "subject": {
        "reference": "Patient/fd13e14c-cd97-4e81-9a69-e638b0a1fa58"
      },
      "period": {
        "start": "2026-02-07T08:00:00.000Z",
        "end": "2026-02-11T08:15:00.000Z"
      }
    },
    "request": {
      "method": "PUT",
      "url": "Encounter/23b1d014-1944-4708-8cf9-e9adc614c955"
    }
  }, {
    "fullUrl": "https://madie.cms.gov/Claim/fdba24bf-d443-4509-a509-3585bb04023a",
    "resource": {
      "resourceType": "Claim",
      "id": "fdba24bf-d443-4509-a509-3585bb04023a",
      "meta": {
        "profile": [ "http://hl7.org/fhir/us/qicore/StructureDefinition/qicore-claim" ]
      },
      "status": "active",
      "type": {
        "coding": [ {
          "system": "http://terminology.hl7.org/CodeSystem/claim-type",
          "code": "institutional"
        } ]
      },
      "use": "claim",
      "patient": {
        "reference": "Patient/fd13e14c-cd97-4e81-9a69-e638b0a1fa58"
      },
      "created": "2026-12-01",
      "provider": {
        "reference": "Practitioner/ebdbe743-21aa-40e0-9e6a-e4c7683c70dc"
      },
      "priority": {
        "coding": [ {
          "system": "http://terminology.hl7.org/CodeSystem/processpriority",
          "code": "normal"
        } ]
      },
      "diagnosis": [ {
        "sequence": 1,
        "diagnosisCodeableConcept": {
          "coding": [ {
            "system": "http://hl7.org/fhir/sid/icd-10-cm",
            "code": "I48.0"
          } ]
        },
        "type": [ {
          "coding": [ {
            "system": "http://terminology.hl7.org/CodeSystem/ex-diagnosistype",
            "code": "principal"
          } ]
        } ]
      } ],
      "insurance": [ {
        "sequence": 1,
        "focal": true,
        "coverage": {
          "reference": "Coverage/5fa041661c76ba66d9959367"
        }
      } ],
      "item": [ {
        "sequence": 1,
        "diagnosisSequence": [ 1 ],
        "productOrService": {
          "coding": [ {
            "system": "http://terminology.hl7.org/CodeSystem/ex-USCLS",
            "code": "99555"
          } ]
        },
        "encounter": [ {
          "reference": "Encounter/e14c7d6b-c664-4d7d-9cca-365102a320b0"
        } ]
      } ]
    },
    "request": {
      "method": "PUT",
      "url": "Claim/fdba24bf-d443-4509-a509-3585bb04023a"
    }
  }, {
    "fullUrl": "https://madie.cms.gov/Coverage/56d0a9ab-6d98-4d19-b0e9-54157ce78112",
    "resource": {
      "resourceType": "Coverage",
      "id": "56d0a9ab-6d98-4d19-b0e9-54157ce78112",
      "meta": {
        "profile": [ "http://hl7.org/fhir/us/qicore/StructureDefinition/qicore-coverage" ]
      },
      "status": "active",
      "subscriberId": "523435",
      "beneficiary": {
        "reference": "Patient/fd13e14c-cd97-4e81-9a69-e638b0a1fa58"
      },
      "relationship": {
        "coding": [ {
          "system": "http://terminology.hl7.org/CodeSystem/subscriber-relationship",
          "code": "self"
        } ]
      },
      "payor": [ {
        "reference": "Organization/d2634fb5-8b6c-4872-8a2a-bf06625e5e40"
      } ]
    },
    "request": {
      "method": "PUT",
      "url": "Coverage/56d0a9ab-6d98-4d19-b0e9-54157ce78112"
    }
  }, {
    "fullUrl": "https://madie.cms.gov/Condition/6ee56cae-0d94-42ed-b767-122f74621ecc",
    "resource": {
      "resourceType": "Condition",
      "id": "6ee56cae-0d94-42ed-b767-122f74621ecc",
      "meta": {
        "profile": [ "http://hl7.org/fhir/us/qicore/StructureDefinition/qicore-condition-encounter-diagnosis" ]
      },
      "clinicalStatus": {
        "coding": [ {
          "system": "http://terminology.hl7.org/CodeSystem/condition-clinical",
          "code": "active"
        } ]
      },
      "verificationStatus": {
        "coding": [ {
          "system": "http://terminology.hl7.org/CodeSystem/condition-ver-status",
          "code": "confirmed"
        } ]
      },
      "category": [ {
        "coding": [ {
          "system": "http://terminology.hl7.org/CodeSystem/condition-category",
          "code": "encounter-diagnosis",
          "display": "Encounter Diagnosis"
        } ]
      } ],
      "code": {
        "coding": [ {
          "system": "http://snomed.info/sct",
          "version": "2021-09",
          "code": "120041000119109",
          "display": "Atrial fibrillation with rapid ventricular response (disorder)",
          "userSelected": true
        } ]
      },
      "subject": {
        "reference": "Patient/fd13e14c-cd97-4e81-9a69-e638b0a1fa58"
      },
      "recordedDate": "2026-10-13T08:00:00.000Z"
    },
    "request": {
      "method": "PUT",
      "url": "Condition/6ee56cae-0d94-42ed-b767-122f74621ecc"
    }
  }, {
    "fullUrl": "https://madie.cms.gov/Condition/5a8b36b0-70ef-4d1f-b6b8-1d3f0ef7f4f9",
    "resource": {
      "resourceType": "Condition",
      "id": "5a8b36b0-70ef-4d1f-b6b8-1d3f0ef7f4f9",
      "meta": {
        "profile": [ "http://hl7.org/fhir/us/qicore/StructureDefinition/qicore-condition-encounter-diagnosis" ]
      },
      "clinicalStatus": {
        "coding": [ {
          "system": "http://terminology.hl7.org/CodeSystem/condition-clinical",
          "code": "active"
        } ]
      },
      "verificationStatus": {
        "coding": [ {
          "system": "http://terminology.hl7.org/CodeSystem/condition-ver-status",
          "code": "confirmed"
        } ]
      },
      "category": [ {
        "coding": [ {
          "system": "http://terminology.hl7.org/CodeSystem/condition-category",
          "code": "encounter-diagnosis",
          "display": "Encounter Diagnosis"
        } ]
      } ],
      "code": {
        "coding": [ {
          "system": "http://snomed.info/sct",
          "version": "2021-09",
          "code": "111297002",
          "display": "Nonparalytic stroke (disorder)",
          "userSelected": true
        } ]
      },
      "subject": {
        "reference": "Patient/fd13e14c-cd97-4e81-9a69-e638b0a1fa58"
      },
      "recordedDate": "2026-10-13T08:00:00.000Z"
    },
    "request": {
      "method": "PUT",
      "url": "Condition/5a8b36b0-70ef-4d1f-b6b8-1d3f0ef7f4f9"
    }
  }, {
    "fullUrl": "https://madie.cms.gov/Organization/d2634fb5-8b6c-4872-8a2a-bf06625e5e40",
    "resource": {
      "resourceType": "Organization",
      "id": "d2634fb5-8b6c-4872-8a2a-bf06625e5e40",
      "meta": {
        "profile": [ "http://hl7.org/fhir/us/qicore/StructureDefinition/qicore-organization" ]
      },
      "identifier": [ {
        "use": "temp",
        "system": "urn:oid:2.16.840.1.113883.4.4",
        "value": "21-3259825"
      } ],
      "active": true,
      "type": [ {
        "coding": [ {
          "system": "http://terminology.hl7.org/CodeSystem/organization-type",
          "code": "pay",
          "display": "Payer"
        } ]
      } ],
      "name": "Blue Cross Blue Shield of Texas",
      "telecom": [ {
        "system": "phone",
        "value": "(+1) 972-766-6900"
      } ],
      "address": [ {
        "use": "billing",
        "type": "postal",
        "line": [ "P.O. Box 660044" ],
        "city": "Dallas",
        "state": "TX",
        "postalCode": "75266-0044",
        "country": "USA"
      } ]
    },
    "request": {
      "method": "PUT",
      "url": "Organization/d2634fb5-8b6c-4872-8a2a-bf06625e5e40"
    }
  }, {
    "fullUrl": "https://madie.cms.gov/Practitioner/ebdbe743-21aa-40e0-9e6a-e4c7683c70dc",
    "resource": {
      "resourceType": "Practitioner",
      "id": "ebdbe743-21aa-40e0-9e6a-e4c7683c70dc",
      "meta": {
        "profile": [ "http://hl7.org/fhir/us/qicore/StructureDefinition/qicore-practitioner" ]
      },
      "identifier": [ {
        "system": "http://hl7.org/fhir/sid/us-npi",
        "value": "9999999896"
      } ],
      "name": [ {
        "family": "Evil",
        "prefix": [ "Dr" ]
      } ]
    },
    "request": {
      "method": "PUT",
      "url": "Practitioner/ebdbe743-21aa-40e0-9e6a-e4c7683c70dc"
    }
  }, {
    "fullUrl": "https://madie.cms.gov/MeasureReport/8a6219e3-7afa-434b-b3bb-5672e2ef198f",
    "resource": {
      "resourceType": "MeasureReport",
      "id": "8a6219e3-7afa-434b-b3bb-5672e2ef198f",
      "meta": {
        "profile": [ "http://hl7.org/fhir/us/cqfmeasures/StructureDefinition/test-case-cqfm" ]
      },
      "contained": [ {
        "resourceType": "Parameters",
        "id": "aa28d4bc-f97f-4aeb-8582-9914b6dfb04c-parameters",
        "parameter": [ {
          "name": "subject",
          "valueString": "fd13e14c-cd97-4e81-9a69-e638b0a1fa58"
        } ]
      } ],
      "extension": [ {
        "url": "http://hl7.org/fhir/StructureDefinition/cqf-inputParameters",
        "valueReference": {
          "reference": "#aa28d4bc-f97f-4aeb-8582-9914b6dfb04c-parameters"
        }
      }, {
        "url": "http://hl7.org/fhir/us/cqfmeasures/StructureDefinition/cqfm-testCaseDescription",
        "valueMarkdown": "ED visit with Principal Dx = Ischemic Stroke. Inpatient encounter Principal DX=AFIB \n"
      } ],
      "modifierExtension": [ {
        "url": "http://hl7.org/fhir/us/cqfmeasures/StructureDefinition/cqfm-isTestCase",
        "valueBoolean": true
      } ],
      "status": "complete",
      "type": "individual",
      "measure": "https://madie.cms.gov/Measure/CMS71FHIRSTKAnticoagAFFlutter",
      "period": {
        "start": "2026-01-01",
        "end": "2026-12-31"
      },
      "group": [ {
        "id": "Group_1",
        "population": [ {
          "id": "InitialPopulation_1",
          "code": {
            "coding": [ {
              "system": "http://terminology.hl7.org/CodeSystem/measure-population",
              "code": "initial-population",
              "display": "Initial Population"
            } ]
          },
          "count": 0
        }, {
          "id": "Denominator_1",
          "code": {
            "coding": [ {
              "system": "http://terminology.hl7.org/CodeSystem/measure-population",
              "code": "denominator",
              "display": "Denominator"
            } ]
          },
          "count": 0
        }, {
          "id": "DenominatorExclusion_1",
          "code": {
            "coding": [ {
              "system": "http://terminology.hl7.org/CodeSystem/measure-population",
              "code": "denominator-exclusion",
              "display": "Denominator Exclusion"
            } ]
          },
          "count": 0
        }, {
          "id": "Numerator_1",
          "code": {
            "coding": [ {
              "system": "http://terminology.hl7.org/CodeSystem/measure-population",
              "code": "numerator",
              "display": "Numerator"
            } ]
          },
          "count": 0
        }, {
          "id": "DenominatorException_1",
          "code": {
            "coding": [ {
              "system": "http://terminology.hl7.org/CodeSystem/measure-population",
              "code": "denominator-exception",
              "display": "Denominator Exception"
            } ]
          },
          "count": 0
        } ],
        "measureScore": {
          "value": 0.0
        }
      } ],
      "evaluatedResource": [ {
        "reference": "Patient/fd13e14c-cd97-4e81-9a69-e638b0a1fa58"
      }, {
        "reference": "Encounter/e14c7d6b-c664-4d7d-9cca-365102a320b0"
      }, {
        "reference": "Encounter/2840bcdb-eb55-4a4c-97e6-f1c7117aac28"
      }, {
        "reference": "Encounter/23b1d014-1944-4708-8cf9-e9adc614c955"
      }, {
        "reference": "Claim/fdba24bf-d443-4509-a509-3585bb04023a"
      }, {
        "reference": "Coverage/56d0a9ab-6d98-4d19-b0e9-54157ce78112"
      }, {
        "reference": "Condition/6ee56cae-0d94-42ed-b767-122f74621ecc"
      }, {
        "reference": "Condition/5a8b36b0-70ef-4d1f-b6b8-1d3f0ef7f4f9"
      }, {
        "reference": "Organization/d2634fb5-8b6c-4872-8a2a-bf06625e5e40"
      }, {
        "reference": "Practitioner/ebdbe743-21aa-40e0-9e6a-e4c7683c70dc"
      } ]
    },
    "request": {
      "method": "PUT",
      "url": "MeasureReport/8a6219e3-7afa-434b-b3bb-5672e2ef198f"
    }
  } ]
}