{
  "resourceType": "Bundle",
  "id": "633c9d030968f8012250fc95",
  "type": "transaction",
  "entry": [ {
    "fullUrl": "https://madie.cms.gov/Patient/ad014d1d-6043-4b40-9fd3-0abc1f308a04",
    "resource": {
      "resourceType": "Patient",
      "id": "ad014d1d-6043-4b40-9fd3-0abc1f308a04",
      "meta": {
        "profile": [ "http://hl7.org/fhir/us/qicore/StructureDefinition/qicore-patient" ]
      },
      "text": {
        "status": "generated",
        "div": "<div xmlns=\"http://www.w3.org/1999/xhtml\"><div class=\"hapiHeaderText\">EncDx=IschemicStroke <b>IPPFAIL </b></div><table class=\"hapiPropertyTable\"><tbody><tr><td>Identifier</td><td>56529beb139611ad036d263322dc8071</td></tr><tr><td>Date of birth</td><td><span>01 December 1960</span></td></tr></tbody></table></div>"
      },
      "extension": [ {
        "url": "http://hl7.org/fhir/us/core/StructureDefinition/us-core-race",
        "extension": [ {
          "url": "ombCategory",
          "valueCoding": {
            "system": "urn:oid:2.16.840.1.113883.6.238",
            "code": "1002-5",
            "display": "American Indian or Alaska Native",
            "userSelected": true
          }
        }, {
          "url": "text",
          "valueString": "American Indian or Alaska Native"
        } ]
      }, {
        "url": "http://hl7.org/fhir/us/core/StructureDefinition/us-core-ethnicity",
        "extension": [ {
          "url": "ombCategory",
          "valueCoding": {
            "system": "urn:oid:2.16.840.1.113883.6.238",
            "code": "2135-2",
            "display": "Hispanic or Latino",
            "userSelected": true
          }
        }, {
          "url": "text",
          "valueString": "Hispanic or Latino"
        } ]
      } ],
      "identifier": [ {
        "type": {
          "coding": [ {
            "system": "http://terminology.hl7.org/CodeSystem/v2-0203",
            "code": "MR"
          } ]
        },
        "system": "https://bonnie-fhir.healthit.gov/",
        "value": "633c9d030968f8012250fc95"
      } ],
      "active": true,
      "name": [ {
        "use": "usual",
        "family": "IPPFail",
        "given": [ "EncDx=IschemicStroke" ]
      } ],
      "gender": "male",
      "birthDate": "1961-12-01"
    },
    "request": {
      "method": "PUT",
      "url": "Patient/ad014d1d-6043-4b40-9fd3-0abc1f308a04"
    }
  }, {
    "fullUrl": "https://madie.cms.gov/Encounter/ee233bde-a33f-496b-9f12-c9ce300f7aca",
    "resource": {
      "resourceType": "Encounter",
      "id": "ee233bde-a33f-496b-9f12-c9ce300f7aca",
      "meta": {
        "profile": [ "http://hl7.org/fhir/us/qicore/StructureDefinition/qicore-encounter" ]
      },
      "status": "finished",
      "class": {
        "system": "http://terminology.hl7.org/CodeSystem/v3-ActCode",
        "code": "IMP",
        "display": "inpatient encounter"
      },
      "type": [ {
        "coding": [ {
          "system": "http://snomed.info/sct",
          "code": "32485007"
        } ]
      } ],
      "subject": {
        "reference": "Patient/ad014d1d-6043-4b40-9fd3-0abc1f308a04"
      },
      "period": {
        "start": "2026-02-08T08:00:00.000Z",
        "end": "2026-02-10T08:15:00.000Z"
      },
      "length": {
        "value": 2,
        "unit": "days"
      },
      "diagnosis": [ {
        "condition": {
          "reference": "Condition/b8436ab7-f946-49a2-8409-29df69737bbc"
        }
      } ]
    },
    "request": {
      "method": "PUT",
      "url": "Encounter/ee233bde-a33f-496b-9f12-c9ce300f7aca"
    }
  }, {
    "fullUrl": "https://madie.cms.gov/Coverage/c18413a5-1413-4f0a-ae0a-3ccf27920e35",
    "resource": {
      "resourceType": "Coverage",
      "id": "c18413a5-1413-4f0a-ae0a-3ccf27920e35",
      "meta": {
        "profile": [ "http://hl7.org/fhir/us/qicore/StructureDefinition/qicore-coverage" ]
      },
      "status": "active",
      "subscriberId": "523435",
      "beneficiary": {
        "reference": "Patient/ad014d1d-6043-4b40-9fd3-0abc1f308a04"
      },
      "relationship": {
        "coding": [ {
          "system": "http://terminology.hl7.org/CodeSystem/subscriber-relationship",
          "code": "self"
        } ]
      },
      "payor": [ {
        "reference": "Organization/ce17539b-58cd-4b41-8c81-082b4a5a060e"
      } ]
    },
    "request": {
      "method": "PUT",
      "url": "Coverage/c18413a5-1413-4f0a-ae0a-3ccf27920e35"
    }
  }, {
    "fullUrl": "https://madie.cms.gov/Condition/b8436ab7-f946-49a2-8409-29df69737bbc",
    "resource": {
      "resourceType": "Condition",
      "id": "b8436ab7-f946-49a2-8409-29df69737bbc",
      "meta": {
        "profile": [ "http://hl7.org/fhir/us/qicore/StructureDefinition/qicore-condition-encounter-diagnosis" ]
      },
      "clinicalStatus": {
        "coding": [ {
          "system": "http://terminology.hl7.org/CodeSystem/condition-clinical",
          "code": "active"
        } ]
      },
      "verificationStatus": {
        "coding": [ {
          "system": "http://terminology.hl7.org/CodeSystem/condition-ver-status",
          "code": "confirmed"
        } ]
      },
      "category": [ {
        "coding": [ {
          "system": "http://terminology.hl7.org/CodeSystem/condition-category",
          "code": "encounter-diagnosis",
          "display": "Encounter Diagnosis"
        } ]
      } ],
      "code": {
        "coding": [ {
          "system": "http://snomed.info/sct",
          "version": "2021-09",
          "code": "111297002",
          "display": "Nonparalytic stroke (disorder)",
          "userSelected": true
        } ]
      },
      "subject": {
        "reference": "Patient/ad014d1d-6043-4b40-9fd3-0abc1f308a04"
      },
      "recordedDate": "2026-10-13T08:00:00.000Z"
    },
    "request": {
      "method": "PUT",
      "url": "Condition/b8436ab7-f946-49a2-8409-29df69737bbc"
    }
  }, {
    "fullUrl": "https://madie.cms.gov/Claim/7644570e-7da8-444b-837d-a85748790b19",
    "resource": {
      "resourceType": "Claim",
      "id": "7644570e-7da8-444b-837d-a85748790b19",
      "meta": {
        "profile": [ "http://hl7.org/fhir/us/qicore/StructureDefinition/qicore-claim" ]
      },
      "status": "active",
      "type": {
        "coding": [ {
          "system": "http://terminology.hl7.org/CodeSystem/claim-type",
          "code": "institutional"
        } ]
      },
      "use": "claim",
      "patient": {
        "reference": "Patient/ad014d1d-6043-4b40-9fd3-0abc1f308a04"
      },
      "created": "2026-12-01",
      "provider": {
        "reference": "Practitioner/55a34bbf-1665-4cfa-819e-45dd584208a1"
      },
      "priority": {
        "coding": [ {
          "system": "http://terminology.hl7.org/CodeSystem/processpriority",
          "code": "normal"
        } ]
      },
      "diagnosis": [ {
        "sequence": 2,
        "diagnosisCodeableConcept": {
          "coding": [ {
            "system": "http://hl7.org/fhir/sid/icd-10-cm",
            "code": "I63.00"
          } ]
        },
        "type": [ {
          "coding": [ {
            "system": "http://terminology.hl7.org/CodeSystem/ex-diagnosistype",
            "code": "clinical"
          } ]
        } ]
      } ],
      "insurance": [ {
        "sequence": 1,
        "focal": true,
        "coverage": {
          "reference": "Coverage/5fa041661c76ba66d9959367"
        }
      } ],
      "item": [ {
        "sequence": 2,
        "diagnosisSequence": [ 2 ],
        "productOrService": {
          "coding": [ {
            "system": "http://terminology.hl7.org/CodeSystem/ex-USCLS",
            "code": "99555"
          } ]
        },
        "encounter": [ {
          "reference": "Encounter/ee233bde-a33f-496b-9f12-c9ce300f7aca"
        } ]
      } ]
    },
    "request": {
      "method": "PUT",
      "url": "Claim/7644570e-7da8-444b-837d-a85748790b19"
    }
  }, {
    "fullUrl": "https://madie.cms.gov/Organization/ce17539b-58cd-4b41-8c81-082b4a5a060e",
    "resource": {
      "resourceType": "Organization",
      "id": "ce17539b-58cd-4b41-8c81-082b4a5a060e",
      "meta": {
        "profile": [ "http://hl7.org/fhir/us/qicore/StructureDefinition/qicore-organization" ]
      },
      "identifier": [ {
        "use": "temp",
        "system": "urn:oid:2.16.840.1.113883.4.4",
        "value": "21-3259825"
      } ],
      "active": true,
      "type": [ {
        "coding": [ {
          "system": "http://terminology.hl7.org/CodeSystem/organization-type",
          "code": "pay",
          "display": "Payer"
        } ]
      } ],
      "name": "Blue Cross Blue Shield of Texas",
      "telecom": [ {
        "system": "phone",
        "value": "(+1) 972-766-6900"
      } ],
      "address": [ {
        "use": "billing",
        "type": "postal",
        "line": [ "P.O. Box 660044" ],
        "city": "Dallas",
        "state": "TX",
        "postalCode": "75266-0044",
        "country": "USA"
      } ]
    },
    "request": {
      "method": "PUT",
      "url": "Organization/ce17539b-58cd-4b41-8c81-082b4a5a060e"
    }
  }, {
    "fullUrl": "https://madie.cms.gov/Practitioner/55a34bbf-1665-4cfa-819e-45dd584208a1",
    "resource": {
      "resourceType": "Practitioner",
      "id": "55a34bbf-1665-4cfa-819e-45dd584208a1",
      "meta": {
        "profile": [ "http://hl7.org/fhir/us/qicore/StructureDefinition/qicore-practitioner" ]
      },
      "identifier": [ {
        "system": "http://hl7.org/fhir/sid/us-npi",
        "value": "9999999896"
      } ],
      "name": [ {
        "family": "Evil",
        "prefix": [ "Dr" ]
      } ]
    },
    "request": {
      "method": "PUT",
      "url": "Practitioner/55a34bbf-1665-4cfa-819e-45dd584208a1"
    }
  }, {
    "fullUrl": "https://madie.cms.gov/MeasureReport/ded4f28d-5366-4f06-acc3-977776c217e5",
    "resource": {
      "resourceType": "MeasureReport",
      "id": "ded4f28d-5366-4f06-acc3-977776c217e5",
      "meta": {
        "profile": [ "http://hl7.org/fhir/us/cqfmeasures/StructureDefinition/test-case-cqfm" ]
      },
      "contained": [ {
        "resourceType": "Parameters",
        "id": "f0b2e362-11df-4f5e-a08d-deff49e5fd3d-parameters",
        "parameter": [ {
          "name": "subject",
          "valueString": "ad014d1d-6043-4b40-9fd3-0abc1f308a04"
        } ]
      } ],
      "extension": [ {
        "url": "http://hl7.org/fhir/StructureDefinition/cqf-inputParameters",
        "valueReference": {
          "reference": "#f0b2e362-11df-4f5e-a08d-deff49e5fd3d-parameters"
        }
      }, {
        "url": "http://hl7.org/fhir/us/cqfmeasures/StructureDefinition/cqfm-testCaseDescription",
        "valueMarkdown": "Enc Dx = ischemic stroke, age GT 18, without EncPrinipleDx\n"
      } ],
      "modifierExtension": [ {
        "url": "http://hl7.org/fhir/us/cqfmeasures/StructureDefinition/cqfm-isTestCase",
        "valueBoolean": true
      } ],
      "status": "complete",
      "type": "individual",
      "measure": "https://madie.cms.gov/Measure/CMS71FHIRSTKAnticoagAFFlutter",
      "period": {
        "start": "2026-01-01",
        "end": "2026-12-31"
      },
      "group": [ {
        "id": "Group_1",
        "population": [ {
          "id": "InitialPopulation_1",
          "code": {
            "coding": [ {
              "system": "http://terminology.hl7.org/CodeSystem/measure-population",
              "code": "initial-population",
              "display": "Initial Population"
            } ]
          },
          "count": 0
        }, {
          "id": "Denominator_1",
          "code": {
            "coding": [ {
              "system": "http://terminology.hl7.org/CodeSystem/measure-population",
              "code": "denominator",
              "display": "Denominator"
            } ]
          },
          "count": 0
        }, {
          "id": "DenominatorExclusion_1",
          "code": {
            "coding": [ {
              "system": "http://terminology.hl7.org/CodeSystem/measure-population",
              "code": "denominator-exclusion",
              "display": "Denominator Exclusion"
            } ]
          },
          "count": 0
        }, {
          "id": "Numerator_1",
          "code": {
            "coding": [ {
              "system": "http://terminology.hl7.org/CodeSystem/measure-population",
              "code": "numerator",
              "display": "Numerator"
            } ]
          },
          "count": 0
        }, {
          "id": "DenominatorException_1",
          "code": {
            "coding": [ {
              "system": "http://terminology.hl7.org/CodeSystem/measure-population",
              "code": "denominator-exception",
              "display": "Denominator Exception"
            } ]
          },
          "count": 0
        } ],
        "measureScore": {
          "value": 0.0
        }
      } ],
      "evaluatedResource": [ {
        "reference": "Patient/ad014d1d-6043-4b40-9fd3-0abc1f308a04"
      }, {
        "reference": "Encounter/ee233bde-a33f-496b-9f12-c9ce300f7aca"
      }, {
        "reference": "Coverage/c18413a5-1413-4f0a-ae0a-3ccf27920e35"
      }, {
        "reference": "Condition/b8436ab7-f946-49a2-8409-29df69737bbc"
      }, {
        "reference": "Claim/7644570e-7da8-444b-837d-a85748790b19"
      }, {
        "reference": "Organization/ce17539b-58cd-4b41-8c81-082b4a5a060e"
      }, {
        "reference": "Practitioner/55a34bbf-1665-4cfa-819e-45dd584208a1"
      } ]
    },
    "request": {
      "method": "PUT",
      "url": "MeasureReport/ded4f28d-5366-4f06-acc3-977776c217e5"
    }
  } ]
}