{
  "resourceType": "Bundle",
  "id": "633c9d030968f8012250fc9d",
  "type": "transaction",
  "entry": [ {
    "fullUrl": "https://madie.cms.gov/Patient/1a19c21b-41f3-4376-9516-529ad9fb466f",
    "resource": {
      "resourceType": "Patient",
      "id": "1a19c21b-41f3-4376-9516-529ad9fb466f",
      "meta": {
        "profile": [ "http://hl7.org/fhir/us/qicore/StructureDefinition/qicore-patient" ]
      },
      "text": {
        "status": "generated",
        "div": "<div xmlns=\"http://www.w3.org/1999/xhtml\"><div class=\"hapiHeaderText\">MedDCAnticoaStartTmEQEncDischTm <b>NUMERPASS </b></div><table class=\"hapiPropertyTable\"><tbody><tr><td>Identifier</td><td>9128716b0b21eec571089f9d5d345182</td></tr><tr><td>Date of birth</td><td><span>23 May 1954</span></td></tr></tbody></table></div>"
      },
      "extension": [ {
        "url": "http://hl7.org/fhir/us/core/StructureDefinition/us-core-race",
        "extension": [ {
          "url": "ombCategory",
          "valueCoding": {
            "system": "urn:oid:2.16.840.1.113883.6.238",
            "code": "1002-5",
            "display": "American Indian or Alaska Native",
            "userSelected": true
          }
        }, {
          "url": "text",
          "valueString": "American Indian or Alaska Native"
        } ]
      }, {
        "url": "http://hl7.org/fhir/us/core/StructureDefinition/us-core-ethnicity",
        "extension": [ {
          "url": "ombCategory",
          "valueCoding": {
            "system": "urn:oid:2.16.840.1.113883.6.238",
            "code": "2135-2",
            "display": "Hispanic or Latino",
            "userSelected": true
          }
        }, {
          "url": "text",
          "valueString": "Hispanic or Latino"
        } ]
      } ],
      "identifier": [ {
        "type": {
          "coding": [ {
            "system": "http://terminology.hl7.org/CodeSystem/v2-0203",
            "code": "MR"
          } ]
        },
        "system": "https://bonnie-fhir.healthit.gov/",
        "value": "633c9d030968f8012250fc9d"
      } ],
      "active": true,
      "name": [ {
        "use": "usual",
        "family": "NUMERPass",
        "given": [ "MedDCAnticoaStartTmEQEncDischTm" ]
      } ],
      "gender": "female",
      "birthDate": "1955-05-23"
    },
    "request": {
      "method": "PUT",
      "url": "Patient/1a19c21b-41f3-4376-9516-529ad9fb466f"
    }
  }, {
    "fullUrl": "https://madie.cms.gov/Encounter/de8bd661-5c8c-40c5-bfcc-4b93a3272ae5",
    "resource": {
      "resourceType": "Encounter",
      "id": "de8bd661-5c8c-40c5-bfcc-4b93a3272ae5",
      "meta": {
        "profile": [ "http://hl7.org/fhir/us/qicore/StructureDefinition/qicore-encounter" ]
      },
      "status": "finished",
      "class": {
        "system": "http://terminology.hl7.org/CodeSystem/v3-ActCode",
        "code": "IMP",
        "display": "inpatient encounter"
      },
      "type": [ {
        "coding": [ {
          "system": "http://snomed.info/sct",
          "code": "32485007"
        } ]
      } ],
      "subject": {
        "reference": "Patient/1a19c21b-41f3-4376-9516-529ad9fb466f"
      },
      "period": {
        "start": "2026-11-20T08:00:00.000Z",
        "end": "2026-11-24T08:15:00.000Z"
      },
      "length": {
        "value": 4,
        "unit": "days"
      },
      "reasonReference": [ {
        "reference": "Condition/50ead3ef-574c-4771-9a4f-9b14f043450e"
      } ]
    },
    "request": {
      "method": "PUT",
      "url": "Encounter/de8bd661-5c8c-40c5-bfcc-4b93a3272ae5"
    }
  }, {
    "fullUrl": "https://madie.cms.gov/MedicationRequest/1c94dd2e-97f4-49c7-b39c-bb2a36d95b56",
    "resource": {
      "resourceType": "MedicationRequest",
      "id": "1c94dd2e-97f4-49c7-b39c-bb2a36d95b56",
      "meta": {
        "profile": [ "http://hl7.org/fhir/us/qicore/StructureDefinition/qicore-medicationrequest" ]
      },
      "status": "active",
      "intent": "order",
      "category": [ {
        "coding": [ {
          "system": "http://terminology.hl7.org/CodeSystem/medicationrequest-category",
          "code": "community",
          "display": "Community",
          "userSelected": true
        } ]
      } ],
      "medicationCodeableConcept": {
        "coding": [ {
          "system": "http://www.nlm.nih.gov/research/umls/rxnorm",
          "code": "308351"
        } ]
      },
      "subject": {
        "reference": "Patient/1a19c21b-41f3-4376-9516-529ad9fb466f"
      },
      "authoredOn": "2026-11-24T08:15:00.000Z",
      "requester": {
        "reference": "Practitioner/example"
      }
    },
    "request": {
      "method": "PUT",
      "url": "MedicationRequest/1c94dd2e-97f4-49c7-b39c-bb2a36d95b56"
    }
  }, {
    "fullUrl": "https://madie.cms.gov/Claim/cc72e76c-3f6d-4500-9267-1dd39b086cc6",
    "resource": {
      "resourceType": "Claim",
      "id": "cc72e76c-3f6d-4500-9267-1dd39b086cc6",
      "meta": {
        "profile": [ "http://hl7.org/fhir/us/qicore/StructureDefinition/qicore-claim" ]
      },
      "status": "active",
      "type": {
        "coding": [ {
          "system": "http://terminology.hl7.org/CodeSystem/claim-type",
          "code": "institutional"
        } ]
      },
      "use": "claim",
      "patient": {
        "reference": "Patient/1a19c21b-41f3-4376-9516-529ad9fb466f"
      },
      "created": "2026-12-01",
      "provider": {
        "reference": "Practitioner/3c1ec065-b9bc-4f29-bc87-29c92a704e38"
      },
      "priority": {
        "coding": [ {
          "system": "http://terminology.hl7.org/CodeSystem/processpriority",
          "code": "normal"
        } ]
      },
      "diagnosis": [ {
        "sequence": 1,
        "diagnosisCodeableConcept": {
          "coding": [ {
            "system": "http://hl7.org/fhir/sid/icd-10-cm",
            "code": "I63.00"
          } ]
        },
        "type": [ {
          "coding": [ {
            "system": "http://terminology.hl7.org/CodeSystem/ex-diagnosistype",
            "code": "principal"
          } ]
        } ]
      } ],
      "insurance": [ {
        "sequence": 1,
        "focal": true,
        "coverage": {
          "reference": "Coverage/5fa041661c76ba66d9959367"
        }
      } ],
      "item": [ {
        "sequence": 1,
        "diagnosisSequence": [ 1 ],
        "productOrService": {
          "coding": [ {
            "system": "http://terminology.hl7.org/CodeSystem/ex-USCLS",
            "code": "99555"
          } ]
        },
        "encounter": [ {
          "reference": "Encounter/de8bd661-5c8c-40c5-bfcc-4b93a3272ae5"
        } ]
      } ]
    },
    "request": {
      "method": "PUT",
      "url": "Claim/cc72e76c-3f6d-4500-9267-1dd39b086cc6"
    }
  }, {
    "fullUrl": "https://madie.cms.gov/Coverage/0c2698d3-f36d-47c3-ab83-86176f02715b",
    "resource": {
      "resourceType": "Coverage",
      "id": "0c2698d3-f36d-47c3-ab83-86176f02715b",
      "meta": {
        "profile": [ "http://hl7.org/fhir/us/qicore/StructureDefinition/qicore-coverage" ]
      },
      "status": "active",
      "subscriberId": "523435",
      "beneficiary": {
        "reference": "Patient/1a19c21b-41f3-4376-9516-529ad9fb466f"
      },
      "relationship": {
        "coding": [ {
          "system": "http://terminology.hl7.org/CodeSystem/subscriber-relationship",
          "code": "self"
        } ]
      },
      "payor": [ {
        "reference": "Organization/a518cab1-d0c8-4509-9f8e-423318819dad"
      } ]
    },
    "request": {
      "method": "PUT",
      "url": "Coverage/0c2698d3-f36d-47c3-ab83-86176f02715b"
    }
  }, {
    "fullUrl": "https://madie.cms.gov/Procedure/b50f89f4-23fc-452e-80e4-c2fcf0eab29e",
    "resource": {
      "resourceType": "Procedure",
      "id": "b50f89f4-23fc-452e-80e4-c2fcf0eab29e",
      "meta": {
        "profile": [ "http://hl7.org/fhir/us/qicore/StructureDefinition/qicore-procedure" ]
      },
      "extension": [ {
        "url": "http://hl7.org/fhir/us/qicore/StructureDefinition/qicore-recorded",
        "valueDateTime": "2026-11-19T13:35:00.000Z"
      } ],
      "status": "completed",
      "code": {
        "coding": [ {
          "system": "http://www.cms.gov/Medicare/Coding/ICD10",
          "code": "02560ZZ"
        }, {
          "system": "http://snomed.info/sct",
          "code": "175095005"
        } ]
      },
      "subject": {
        "reference": "Patient/1a19c21b-41f3-4376-9516-529ad9fb466f"
      },
      "performedPeriod": {
        "start": "2026-11-20T06:00:00.000Z",
        "end": "2026-11-20T07:15:00.000Z"
      }
    },
    "request": {
      "method": "PUT",
      "url": "Procedure/b50f89f4-23fc-452e-80e4-c2fcf0eab29e"
    }
  }, {
    "fullUrl": "https://madie.cms.gov/Condition/50ead3ef-574c-4771-9a4f-9b14f043450e",
    "resource": {
      "resourceType": "Condition",
      "id": "50ead3ef-574c-4771-9a4f-9b14f043450e",
      "meta": {
        "profile": [ "http://hl7.org/fhir/us/qicore/StructureDefinition/qicore-condition-encounter-diagnosis" ]
      },
      "clinicalStatus": {
        "coding": [ {
          "system": "http://terminology.hl7.org/CodeSystem/condition-clinical",
          "code": "active"
        } ]
      },
      "verificationStatus": {
        "coding": [ {
          "system": "http://terminology.hl7.org/CodeSystem/condition-ver-status",
          "code": "confirmed"
        } ]
      },
      "category": [ {
        "coding": [ {
          "system": "http://terminology.hl7.org/CodeSystem/condition-category",
          "code": "encounter-diagnosis",
          "display": "Encounter Diagnosis"
        } ]
      } ],
      "code": {
        "coding": [ {
          "system": "http://snomed.info/sct",
          "version": "2021-09",
          "code": "111297002",
          "display": "Nonparalytic stroke (disorder)",
          "userSelected": true
        } ]
      },
      "subject": {
        "reference": "Patient/1a19c21b-41f3-4376-9516-529ad9fb466f"
      },
      "recordedDate": "2026-10-13T08:00:00.000Z"
    },
    "request": {
      "method": "PUT",
      "url": "Condition/50ead3ef-574c-4771-9a4f-9b14f043450e"
    }
  }, {
    "fullUrl": "https://madie.cms.gov/Organization/a518cab1-d0c8-4509-9f8e-423318819dad",
    "resource": {
      "resourceType": "Organization",
      "id": "a518cab1-d0c8-4509-9f8e-423318819dad",
      "meta": {
        "profile": [ "http://hl7.org/fhir/us/qicore/StructureDefinition/qicore-organization" ]
      },
      "identifier": [ {
        "use": "temp",
        "system": "urn:oid:2.16.840.1.113883.4.4",
        "value": "21-3259825"
      } ],
      "active": true,
      "type": [ {
        "coding": [ {
          "system": "http://terminology.hl7.org/CodeSystem/organization-type",
          "code": "pay",
          "display": "Payer"
        } ]
      } ],
      "name": "Blue Cross Blue Shield of Texas",
      "telecom": [ {
        "system": "phone",
        "value": "(+1) 972-766-6900"
      } ],
      "address": [ {
        "use": "billing",
        "type": "postal",
        "line": [ "P.O. Box 660044" ],
        "city": "Dallas",
        "state": "TX",
        "postalCode": "75266-0044",
        "country": "USA"
      } ]
    },
    "request": {
      "method": "PUT",
      "url": "Organization/a518cab1-d0c8-4509-9f8e-423318819dad"
    }
  }, {
    "fullUrl": "https://madie.cms.gov/Practitioner/3c1ec065-b9bc-4f29-bc87-29c92a704e38",
    "resource": {
      "resourceType": "Practitioner",
      "id": "3c1ec065-b9bc-4f29-bc87-29c92a704e38",
      "meta": {
        "profile": [ "http://hl7.org/fhir/us/qicore/StructureDefinition/qicore-practitioner" ]
      },
      "identifier": [ {
        "system": "http://hl7.org/fhir/sid/us-npi",
        "value": "9999999896"
      } ],
      "name": [ {
        "family": "Evil",
        "prefix": [ "Dr" ]
      } ]
    },
    "request": {
      "method": "PUT",
      "url": "Practitioner/3c1ec065-b9bc-4f29-bc87-29c92a704e38"
    }
  }, {
    "fullUrl": "https://madie.cms.gov/MeasureReport/39578e77-bbc2-480e-9883-daa849aab439",
    "resource": {
      "resourceType": "MeasureReport",
      "id": "39578e77-bbc2-480e-9883-daa849aab439",
      "meta": {
        "profile": [ "http://hl7.org/fhir/us/cqfmeasures/StructureDefinition/test-case-cqfm" ]
      },
      "contained": [ {
        "resourceType": "Parameters",
        "id": "f80d03d5-5649-4e7c-b68a-ec8b2e0e9e6c-parameters",
        "parameter": [ {
          "name": "subject",
          "valueString": "1a19c21b-41f3-4376-9516-529ad9fb466f"
        } ]
      } ],
      "extension": [ {
        "url": "http://hl7.org/fhir/StructureDefinition/cqf-inputParameters",
        "valueReference": {
          "reference": "#f80d03d5-5649-4e7c-b68a-ec8b2e0e9e6c-parameters"
        }
      }, {
        "url": "http://hl7.org/fhir/us/cqfmeasures/StructureDefinition/cqfm-testCaseDescription",
        "valueMarkdown": "Pt. discharged on anticoagulant, starts time = OccurA discharge time\n"
      } ],
      "modifierExtension": [ {
        "url": "http://hl7.org/fhir/us/cqfmeasures/StructureDefinition/cqfm-isTestCase",
        "valueBoolean": true
      } ],
      "status": "complete",
      "type": "individual",
      "measure": "https://madie.cms.gov/Measure/CMS71FHIRSTKAnticoagAFFlutter",
      "period": {
        "start": "2026-01-01",
        "end": "2026-12-31"
      },
      "group": [ {
        "id": "Group_1",
        "population": [ {
          "id": "InitialPopulation_1",
          "code": {
            "coding": [ {
              "system": "http://terminology.hl7.org/CodeSystem/measure-population",
              "code": "initial-population",
              "display": "Initial Population"
            } ]
          },
          "count": 1
        }, {
          "id": "Denominator_1",
          "code": {
            "coding": [ {
              "system": "http://terminology.hl7.org/CodeSystem/measure-population",
              "code": "denominator",
              "display": "Denominator"
            } ]
          },
          "count": 1
        }, {
          "id": "DenominatorExclusion_1",
          "code": {
            "coding": [ {
              "system": "http://terminology.hl7.org/CodeSystem/measure-population",
              "code": "denominator-exclusion",
              "display": "Denominator Exclusion"
            } ]
          },
          "count": 0
        }, {
          "id": "Numerator_1",
          "code": {
            "coding": [ {
              "system": "http://terminology.hl7.org/CodeSystem/measure-population",
              "code": "numerator",
              "display": "Numerator"
            } ]
          },
          "count": 1
        }, {
          "id": "DenominatorException_1",
          "code": {
            "coding": [ {
              "system": "http://terminology.hl7.org/CodeSystem/measure-population",
              "code": "denominator-exception",
              "display": "Denominator Exception"
            } ]
          },
          "count": 0
        } ],
        "measureScore": {
          "value": 0.0
        }
      } ],
      "evaluatedResource": [ {
        "reference": "Patient/1a19c21b-41f3-4376-9516-529ad9fb466f"
      }, {
        "reference": "Encounter/de8bd661-5c8c-40c5-bfcc-4b93a3272ae5"
      }, {
        "reference": "MedicationRequest/1c94dd2e-97f4-49c7-b39c-bb2a36d95b56"
      }, {
        "reference": "Claim/cc72e76c-3f6d-4500-9267-1dd39b086cc6"
      }, {
        "reference": "Coverage/0c2698d3-f36d-47c3-ab83-86176f02715b"
      }, {
        "reference": "Procedure/b50f89f4-23fc-452e-80e4-c2fcf0eab29e"
      }, {
        "reference": "Condition/50ead3ef-574c-4771-9a4f-9b14f043450e"
      }, {
        "reference": "Organization/a518cab1-d0c8-4509-9f8e-423318819dad"
      }, {
        "reference": "Practitioner/3c1ec065-b9bc-4f29-bc87-29c92a704e38"
      } ]
    },
    "request": {
      "method": "PUT",
      "url": "MeasureReport/39578e77-bbc2-480e-9883-daa849aab439"
    }
  } ]
}