{
  "resourceType": "Bundle",
  "id": "633c9d030968f8012250fc6d",
  "type": "transaction",
  "entry": [ {
    "fullUrl": "https://madie.cms.gov/Patient/1f5b2ed3-23d6-4ffc-be6b-852117f506be",
    "resource": {
      "resourceType": "Patient",
      "id": "1f5b2ed3-23d6-4ffc-be6b-852117f506be",
      "meta": {
        "profile": [ "http://hl7.org/fhir/us/qicore/StructureDefinition/qicore-patient" ]
      },
      "text": {
        "status": "generated",
        "div": "<div xmlns=\"http://www.w3.org/1999/xhtml\"><div class=\"hapiHeaderText\">EncPrinDx=IschStk_EncDx=Afib/flutter <b>DENOMPASS </b></div><table class=\"hapiPropertyTable\"><tbody><tr><td>Identifier</td><td>bfd807e1d1993084d1164432ce591a06</td></tr><tr><td>Date of birth</td><td><span>01 December 1960</span></td></tr></tbody></table></div>"
      },
      "extension": [ {
        "url": "http://hl7.org/fhir/us/core/StructureDefinition/us-core-race",
        "extension": [ {
          "url": "ombCategory",
          "valueCoding": {
            "system": "urn:oid:2.16.840.1.113883.6.238",
            "code": "1002-5",
            "display": "American Indian or Alaska Native",
            "userSelected": true
          }
        }, {
          "url": "text",
          "valueString": "American Indian or Alaska Native"
        } ]
      }, {
        "url": "http://hl7.org/fhir/us/core/StructureDefinition/us-core-ethnicity",
        "extension": [ {
          "url": "ombCategory",
          "valueCoding": {
            "system": "urn:oid:2.16.840.1.113883.6.238",
            "code": "2135-2",
            "display": "Hispanic or Latino",
            "userSelected": true
          }
        }, {
          "url": "text",
          "valueString": "Hispanic or Latino"
        } ]
      } ],
      "identifier": [ {
        "type": {
          "coding": [ {
            "system": "http://terminology.hl7.org/CodeSystem/v2-0203",
            "code": "MR"
          } ]
        },
        "system": "https://bonnie-fhir.healthit.gov/",
        "value": "633c9d030968f8012250fc6d"
      } ],
      "active": true,
      "name": [ {
        "use": "usual",
        "family": "DENOMPass",
        "given": [ "EncPrinDx=IschStk_EncDx=Afib/flutter" ]
      } ],
      "gender": "male",
      "birthDate": "1961-12-01"
    },
    "request": {
      "method": "PUT",
      "url": "Patient/1f5b2ed3-23d6-4ffc-be6b-852117f506be"
    }
  }, {
    "fullUrl": "https://madie.cms.gov/Encounter/71366016-232e-46ee-b712-9d877c124b49",
    "resource": {
      "resourceType": "Encounter",
      "id": "71366016-232e-46ee-b712-9d877c124b49",
      "meta": {
        "profile": [ "http://hl7.org/fhir/us/qicore/StructureDefinition/qicore-encounter" ]
      },
      "status": "finished",
      "class": {
        "system": "http://terminology.hl7.org/CodeSystem/v3-ActCode",
        "code": "IMP",
        "display": "inpatient encounter"
      },
      "type": [ {
        "coding": [ {
          "system": "http://snomed.info/sct",
          "code": "183452005"
        } ]
      } ],
      "subject": {
        "reference": "Patient/1f5b2ed3-23d6-4ffc-be6b-852117f506be"
      },
      "period": {
        "start": "2026-02-08T08:00:00.000Z",
        "end": "2026-02-10T08:15:00.000Z"
      },
      "length": {
        "value": 2,
        "unit": "days"
      },
      "reasonReference": [ {
        "reference": "Condition/1326a065-b07e-494e-8e34-05bdbbd87b74"
      } ]
    },
    "request": {
      "method": "PUT",
      "url": "Encounter/71366016-232e-46ee-b712-9d877c124b49"
    }
  }, {
    "fullUrl": "https://madie.cms.gov/Claim/22c162e3-125e-49e0-85c1-501e29fe89fc",
    "resource": {
      "resourceType": "Claim",
      "id": "22c162e3-125e-49e0-85c1-501e29fe89fc",
      "meta": {
        "profile": [ "http://hl7.org/fhir/us/qicore/StructureDefinition/qicore-claim" ]
      },
      "status": "active",
      "type": {
        "coding": [ {
          "system": "http://terminology.hl7.org/CodeSystem/claim-type",
          "code": "institutional"
        } ]
      },
      "use": "claim",
      "patient": {
        "reference": "Patient/1f5b2ed3-23d6-4ffc-be6b-852117f506be"
      },
      "created": "2026-12-01",
      "provider": {
        "reference": "Practitioner/ccc8d130-81c6-49b1-8b03-6d8c302ece4b"
      },
      "priority": {
        "coding": [ {
          "system": "http://terminology.hl7.org/CodeSystem/processpriority",
          "code": "normal"
        } ]
      },
      "diagnosis": [ {
        "sequence": 1,
        "diagnosisCodeableConcept": {
          "coding": [ {
            "system": "http://hl7.org/fhir/sid/icd-10-cm",
            "code": "I63.00"
          } ]
        },
        "type": [ {
          "coding": [ {
            "system": "http://terminology.hl7.org/CodeSystem/ex-diagnosistype",
            "code": "principal"
          } ]
        } ]
      } ],
      "insurance": [ {
        "sequence": 1,
        "focal": true,
        "coverage": {
          "reference": "Coverage/5fa041661c76ba66d9959367"
        }
      } ],
      "item": [ {
        "sequence": 1,
        "diagnosisSequence": [ 1 ],
        "productOrService": {
          "coding": [ {
            "system": "http://terminology.hl7.org/CodeSystem/ex-USCLS",
            "code": "99555"
          } ]
        },
        "encounter": [ {
          "reference": "Encounter/71366016-232e-46ee-b712-9d877c124b49"
        } ]
      } ]
    },
    "request": {
      "method": "PUT",
      "url": "Claim/22c162e3-125e-49e0-85c1-501e29fe89fc"
    }
  }, {
    "fullUrl": "https://madie.cms.gov/Coverage/4ab95532-3542-4015-af6d-7c2ba13a30da",
    "resource": {
      "resourceType": "Coverage",
      "id": "4ab95532-3542-4015-af6d-7c2ba13a30da",
      "meta": {
        "profile": [ "http://hl7.org/fhir/us/qicore/StructureDefinition/qicore-coverage" ]
      },
      "status": "active",
      "subscriberId": "523435",
      "beneficiary": {
        "reference": "Patient/1f5b2ed3-23d6-4ffc-be6b-852117f506be"
      },
      "relationship": {
        "coding": [ {
          "system": "http://terminology.hl7.org/CodeSystem/subscriber-relationship",
          "code": "self"
        } ]
      },
      "payor": [ {
        "reference": "Organization/8e3dac88-2eae-4d15-ab31-f236c1361e3d"
      } ]
    },
    "request": {
      "method": "PUT",
      "url": "Coverage/4ab95532-3542-4015-af6d-7c2ba13a30da"
    }
  }, {
    "fullUrl": "https://madie.cms.gov/Condition/5396ff7b-17e8-45cc-9fb8-52f65a6face5",
    "resource": {
      "resourceType": "Condition",
      "id": "5396ff7b-17e8-45cc-9fb8-52f65a6face5",
      "meta": {
        "profile": [ "http://hl7.org/fhir/us/qicore/StructureDefinition/qicore-condition-encounter-diagnosis" ]
      },
      "clinicalStatus": {
        "coding": [ {
          "system": "http://terminology.hl7.org/CodeSystem/condition-clinical",
          "code": "active"
        } ]
      },
      "verificationStatus": {
        "coding": [ {
          "system": "http://terminology.hl7.org/CodeSystem/condition-ver-status",
          "code": "confirmed"
        } ]
      },
      "category": [ {
        "coding": [ {
          "system": "http://terminology.hl7.org/CodeSystem/condition-category",
          "code": "encounter-diagnosis",
          "display": "Encounter Diagnosis"
        } ]
      } ],
      "code": {
        "coding": [ {
          "system": "http://snomed.info/sct",
          "version": "2021-09",
          "code": "111297002",
          "display": "Nonparalytic stroke (disorder)",
          "userSelected": true
        } ]
      },
      "subject": {
        "reference": "Patient/1f5b2ed3-23d6-4ffc-be6b-852117f506be"
      },
      "recordedDate": "2026-10-13T08:00:00.000Z"
    },
    "request": {
      "method": "PUT",
      "url": "Condition/5396ff7b-17e8-45cc-9fb8-52f65a6face5"
    }
  }, {
    "fullUrl": "https://madie.cms.gov/Condition/1326a065-b07e-494e-8e34-05bdbbd87b74",
    "resource": {
      "resourceType": "Condition",
      "id": "1326a065-b07e-494e-8e34-05bdbbd87b74",
      "meta": {
        "profile": [ "http://hl7.org/fhir/us/qicore/StructureDefinition/qicore-condition-encounter-diagnosis" ]
      },
      "clinicalStatus": {
        "coding": [ {
          "system": "http://terminology.hl7.org/CodeSystem/condition-clinical",
          "code": "active"
        } ]
      },
      "verificationStatus": {
        "coding": [ {
          "system": "http://terminology.hl7.org/CodeSystem/condition-ver-status",
          "code": "confirmed"
        } ]
      },
      "category": [ {
        "coding": [ {
          "system": "http://terminology.hl7.org/CodeSystem/condition-category",
          "code": "encounter-diagnosis",
          "display": "Encounter Diagnosis"
        } ]
      } ],
      "code": {
        "coding": [ {
          "system": "http://snomed.info/sct",
          "version": "2021-09",
          "code": "120041000119109",
          "display": "Atrial fibrillation with rapid ventricular response (disorder)",
          "userSelected": true
        } ]
      },
      "subject": {
        "reference": "Patient/1f5b2ed3-23d6-4ffc-be6b-852117f506be"
      },
      "encounter": {
        "reference": "Encounter/71366016-232e-46ee-b712-9d877c124b49"
      },
      "onsetDateTime": "2012-05-24T00:00:00.000Z",
      "recordedDate": "2026-10-13T08:00:00.000Z"
    },
    "request": {
      "method": "PUT",
      "url": "Condition/1326a065-b07e-494e-8e34-05bdbbd87b74"
    }
  }, {
    "fullUrl": "https://madie.cms.gov/Organization/8e3dac88-2eae-4d15-ab31-f236c1361e3d",
    "resource": {
      "resourceType": "Organization",
      "id": "8e3dac88-2eae-4d15-ab31-f236c1361e3d",
      "meta": {
        "profile": [ "http://hl7.org/fhir/us/qicore/StructureDefinition/qicore-organization" ]
      },
      "identifier": [ {
        "use": "temp",
        "system": "urn:oid:2.16.840.1.113883.4.4",
        "value": "21-3259825"
      } ],
      "active": true,
      "type": [ {
        "coding": [ {
          "system": "http://terminology.hl7.org/CodeSystem/organization-type",
          "code": "pay",
          "display": "Payer"
        } ]
      } ],
      "name": "Blue Cross Blue Shield of Texas",
      "telecom": [ {
        "system": "phone",
        "value": "(+1) 972-766-6900"
      } ],
      "address": [ {
        "use": "billing",
        "type": "postal",
        "line": [ "P.O. Box 660044" ],
        "city": "Dallas",
        "state": "TX",
        "postalCode": "75266-0044",
        "country": "USA"
      } ]
    },
    "request": {
      "method": "PUT",
      "url": "Organization/8e3dac88-2eae-4d15-ab31-f236c1361e3d"
    }
  }, {
    "fullUrl": "https://madie.cms.gov/Practitioner/ccc8d130-81c6-49b1-8b03-6d8c302ece4b",
    "resource": {
      "resourceType": "Practitioner",
      "id": "ccc8d130-81c6-49b1-8b03-6d8c302ece4b",
      "meta": {
        "profile": [ "http://hl7.org/fhir/us/qicore/StructureDefinition/qicore-practitioner" ]
      },
      "identifier": [ {
        "system": "http://hl7.org/fhir/sid/us-npi",
        "value": "9999999896"
      } ],
      "name": [ {
        "family": "Evil",
        "prefix": [ "Dr" ]
      } ]
    },
    "request": {
      "method": "PUT",
      "url": "Practitioner/ccc8d130-81c6-49b1-8b03-6d8c302ece4b"
    }
  }, {
    "fullUrl": "https://madie.cms.gov/MeasureReport/47ceb7bd-76c3-41ec-80f1-d153e76d466d",
    "resource": {
      "resourceType": "MeasureReport",
      "id": "47ceb7bd-76c3-41ec-80f1-d153e76d466d",
      "meta": {
        "profile": [ "http://hl7.org/fhir/us/cqfmeasures/StructureDefinition/test-case-cqfm" ]
      },
      "contained": [ {
        "resourceType": "Parameters",
        "id": "ecd30ff7-4fa2-4029-a015-3e62b7d68af0-parameters",
        "parameter": [ {
          "name": "subject",
          "valueString": "1f5b2ed3-23d6-4ffc-be6b-852117f506be"
        } ]
      } ],
      "extension": [ {
        "url": "http://hl7.org/fhir/StructureDefinition/cqf-inputParameters",
        "valueReference": {
          "reference": "#ecd30ff7-4fa2-4029-a015-3e62b7d68af0-parameters"
        }
      }, {
        "url": "http://hl7.org/fhir/us/cqfmeasures/StructureDefinition/cqfm-testCaseDescription",
        "valueMarkdown": "\"Encounter Principal diagnosis = Ischemic stroke,\nEncounter Dx = Atrial fib/flutter.  testing encounter diagnosis as an attribute \"\n"
      } ],
      "modifierExtension": [ {
        "url": "http://hl7.org/fhir/us/cqfmeasures/StructureDefinition/cqfm-isTestCase",
        "valueBoolean": true
      } ],
      "status": "complete",
      "type": "individual",
      "measure": "https://madie.cms.gov/Measure/CMS71FHIRSTKAnticoagAFFlutter",
      "period": {
        "start": "2026-01-01",
        "end": "2026-12-31"
      },
      "group": [ {
        "id": "Group_1",
        "population": [ {
          "id": "InitialPopulation_1",
          "code": {
            "coding": [ {
              "system": "http://terminology.hl7.org/CodeSystem/measure-population",
              "code": "initial-population",
              "display": "Initial Population"
            } ]
          },
          "count": 1
        }, {
          "id": "Denominator_1",
          "code": {
            "coding": [ {
              "system": "http://terminology.hl7.org/CodeSystem/measure-population",
              "code": "denominator",
              "display": "Denominator"
            } ]
          },
          "count": 1
        }, {
          "id": "DenominatorExclusion_1",
          "code": {
            "coding": [ {
              "system": "http://terminology.hl7.org/CodeSystem/measure-population",
              "code": "denominator-exclusion",
              "display": "Denominator Exclusion"
            } ]
          },
          "count": 0
        }, {
          "id": "Numerator_1",
          "code": {
            "coding": [ {
              "system": "http://terminology.hl7.org/CodeSystem/measure-population",
              "code": "numerator",
              "display": "Numerator"
            } ]
          },
          "count": 0
        }, {
          "id": "DenominatorException_1",
          "code": {
            "coding": [ {
              "system": "http://terminology.hl7.org/CodeSystem/measure-population",
              "code": "denominator-exception",
              "display": "Denominator Exception"
            } ]
          },
          "count": 0
        } ],
        "measureScore": {
          "value": 0.0
        }
      } ],
      "evaluatedResource": [ {
        "reference": "Patient/1f5b2ed3-23d6-4ffc-be6b-852117f506be"
      }, {
        "reference": "Encounter/71366016-232e-46ee-b712-9d877c124b49"
      }, {
        "reference": "Claim/22c162e3-125e-49e0-85c1-501e29fe89fc"
      }, {
        "reference": "Coverage/4ab95532-3542-4015-af6d-7c2ba13a30da"
      }, {
        "reference": "Condition/5396ff7b-17e8-45cc-9fb8-52f65a6face5"
      }, {
        "reference": "Condition/1326a065-b07e-494e-8e34-05bdbbd87b74"
      }, {
        "reference": "Organization/8e3dac88-2eae-4d15-ab31-f236c1361e3d"
      }, {
        "reference": "Practitioner/ccc8d130-81c6-49b1-8b03-6d8c302ece4b"
      } ]
    },
    "request": {
      "method": "PUT",
      "url": "MeasureReport/47ceb7bd-76c3-41ec-80f1-d153e76d466d"
    }
  } ]
}