{
  "resourceType": "Bundle",
  "id": "633c9d030968f8012250fc6d",
  "type": "transaction",
  "entry": [ {
    "fullUrl": "https://madie.cms.gov/Patient/e75d7e1c-df18-487e-a8f0-0b140e120581",
    "resource": {
      "resourceType": "Patient",
      "id": "e75d7e1c-df18-487e-a8f0-0b140e120581",
      "meta": {
        "profile": [ "http://hl7.org/fhir/us/qicore/StructureDefinition/qicore-patient" ]
      },
      "text": {
        "status": "generated",
        "div": "<div xmlns=\"http://www.w3.org/1999/xhtml\"><div class=\"hapiHeaderText\">EncPrinDx=IschStk_EncDx=Afib/flutter <b>DENOMPASS </b></div><table class=\"hapiPropertyTable\"><tbody><tr><td>Identifier</td><td>bfd807e1d1993084d1164432ce591a06</td></tr><tr><td>Date of birth</td><td><span>01 December 1960</span></td></tr></tbody></table></div>"
      },
      "extension": [ {
        "url": "http://hl7.org/fhir/us/core/StructureDefinition/us-core-race",
        "extension": [ {
          "url": "ombCategory",
          "valueCoding": {
            "system": "urn:oid:2.16.840.1.113883.6.238",
            "code": "1002-5",
            "display": "American Indian or Alaska Native",
            "userSelected": true
          }
        }, {
          "url": "text",
          "valueString": "American Indian or Alaska Native"
        } ]
      }, {
        "url": "http://hl7.org/fhir/us/core/StructureDefinition/us-core-ethnicity",
        "extension": [ {
          "url": "ombCategory",
          "valueCoding": {
            "system": "urn:oid:2.16.840.1.113883.6.238",
            "code": "2135-2",
            "display": "Hispanic or Latino",
            "userSelected": true
          }
        }, {
          "url": "text",
          "valueString": "Hispanic or Latino"
        } ]
      } ],
      "identifier": [ {
        "type": {
          "coding": [ {
            "system": "http://terminology.hl7.org/CodeSystem/v2-0203",
            "code": "MR"
          } ]
        },
        "system": "https://bonnie-fhir.healthit.gov/",
        "value": "633c9d030968f8012250fc6d"
      } ],
      "active": true,
      "name": [ {
        "use": "usual",
        "family": "DENOMPass",
        "given": [ "EncPrinDx=IschStk_EncDx=Afib/flutter" ]
      } ],
      "gender": "male",
      "birthDate": "1961-12-01"
    },
    "request": {
      "method": "PUT",
      "url": "Patient/e75d7e1c-df18-487e-a8f0-0b140e120581"
    }
  }, {
    "fullUrl": "https://madie.cms.gov/Encounter/fa41392e-58b9-4b05-aaa1-d71d02eda9d9",
    "resource": {
      "resourceType": "Encounter",
      "id": "fa41392e-58b9-4b05-aaa1-d71d02eda9d9",
      "meta": {
        "profile": [ "http://hl7.org/fhir/us/qicore/StructureDefinition/qicore-encounter" ]
      },
      "status": "finished",
      "class": {
        "system": "http://terminology.hl7.org/CodeSystem/v3-ActCode",
        "code": "IMP",
        "display": "inpatient encounter"
      },
      "type": [ {
        "coding": [ {
          "system": "http://snomed.info/sct",
          "code": "183452005"
        } ]
      } ],
      "subject": {
        "reference": "Patient/e75d7e1c-df18-487e-a8f0-0b140e120581"
      },
      "period": {
        "start": "2026-02-08T08:00:00.000Z",
        "end": "2026-02-10T08:15:00.000Z"
      },
      "length": {
        "value": 2,
        "unit": "days"
      },
      "reasonReference": [ {
        "reference": "Condition/f82590d5-8a11-4ecc-889d-f97641eb1e70"
      } ]
    },
    "request": {
      "method": "PUT",
      "url": "Encounter/fa41392e-58b9-4b05-aaa1-d71d02eda9d9"
    }
  }, {
    "fullUrl": "https://madie.cms.gov/Claim/ae5f0570-5bde-41cf-84d1-de5daace5c71",
    "resource": {
      "resourceType": "Claim",
      "id": "ae5f0570-5bde-41cf-84d1-de5daace5c71",
      "meta": {
        "profile": [ "http://hl7.org/fhir/us/qicore/StructureDefinition/qicore-claim" ]
      },
      "status": "active",
      "type": {
        "coding": [ {
          "system": "http://terminology.hl7.org/CodeSystem/claim-type",
          "code": "institutional"
        } ]
      },
      "use": "claim",
      "patient": {
        "reference": "Patient/e75d7e1c-df18-487e-a8f0-0b140e120581"
      },
      "created": "2026-12-01",
      "provider": {
        "reference": "Practitioner/58506a3d-aee7-4a11-a074-5dcfe4ad8eb2"
      },
      "priority": {
        "coding": [ {
          "system": "http://terminology.hl7.org/CodeSystem/processpriority",
          "code": "normal"
        } ]
      },
      "diagnosis": [ {
        "sequence": 1,
        "diagnosisCodeableConcept": {
          "coding": [ {
            "system": "http://hl7.org/fhir/sid/icd-10-cm",
            "code": "I63.00"
          } ]
        },
        "type": [ {
          "coding": [ {
            "system": "http://terminology.hl7.org/CodeSystem/ex-diagnosistype",
            "code": "principal"
          } ]
        } ]
      } ],
      "insurance": [ {
        "sequence": 1,
        "focal": true,
        "coverage": {
          "reference": "Coverage/5fa041661c76ba66d9959367"
        }
      } ],
      "item": [ {
        "sequence": 1,
        "diagnosisSequence": [ 1 ],
        "productOrService": {
          "coding": [ {
            "system": "http://terminology.hl7.org/CodeSystem/ex-USCLS",
            "code": "99555"
          } ]
        },
        "encounter": [ {
          "reference": "Encounter/fa41392e-58b9-4b05-aaa1-d71d02eda9d9"
        } ]
      } ]
    },
    "request": {
      "method": "PUT",
      "url": "Claim/ae5f0570-5bde-41cf-84d1-de5daace5c71"
    }
  }, {
    "fullUrl": "https://madie.cms.gov/Coverage/fb940bd0-f7c5-4fab-b9f1-529fbe02a35d",
    "resource": {
      "resourceType": "Coverage",
      "id": "fb940bd0-f7c5-4fab-b9f1-529fbe02a35d",
      "meta": {
        "profile": [ "http://hl7.org/fhir/us/qicore/StructureDefinition/qicore-coverage" ]
      },
      "status": "active",
      "subscriberId": "523435",
      "beneficiary": {
        "reference": "Patient/e75d7e1c-df18-487e-a8f0-0b140e120581"
      },
      "relationship": {
        "coding": [ {
          "system": "http://terminology.hl7.org/CodeSystem/subscriber-relationship",
          "code": "self"
        } ]
      },
      "payor": [ {
        "reference": "Organization/8f1c64ba-7805-46c9-9d1f-d580366dba73"
      } ]
    },
    "request": {
      "method": "PUT",
      "url": "Coverage/fb940bd0-f7c5-4fab-b9f1-529fbe02a35d"
    }
  }, {
    "fullUrl": "https://madie.cms.gov/Condition/f06fba3a-fed6-4a6b-935f-6c6c11236194",
    "resource": {
      "resourceType": "Condition",
      "id": "f06fba3a-fed6-4a6b-935f-6c6c11236194",
      "meta": {
        "profile": [ "http://hl7.org/fhir/us/qicore/StructureDefinition/qicore-condition-encounter-diagnosis" ]
      },
      "clinicalStatus": {
        "coding": [ {
          "system": "http://terminology.hl7.org/CodeSystem/condition-clinical",
          "code": "active"
        } ]
      },
      "verificationStatus": {
        "coding": [ {
          "system": "http://terminology.hl7.org/CodeSystem/condition-ver-status",
          "code": "confirmed"
        } ]
      },
      "category": [ {
        "coding": [ {
          "system": "http://terminology.hl7.org/CodeSystem/condition-category",
          "code": "encounter-diagnosis",
          "display": "Encounter Diagnosis"
        } ]
      } ],
      "code": {
        "coding": [ {
          "system": "http://snomed.info/sct",
          "version": "2021-09",
          "code": "111297002",
          "display": "Nonparalytic stroke (disorder)",
          "userSelected": true
        } ]
      },
      "subject": {
        "reference": "Patient/e75d7e1c-df18-487e-a8f0-0b140e120581"
      },
      "recordedDate": "2026-10-13T08:00:00.000Z"
    },
    "request": {
      "method": "PUT",
      "url": "Condition/f06fba3a-fed6-4a6b-935f-6c6c11236194"
    }
  }, {
    "fullUrl": "https://madie.cms.gov/Condition/f82590d5-8a11-4ecc-889d-f97641eb1e70",
    "resource": {
      "resourceType": "Condition",
      "id": "f82590d5-8a11-4ecc-889d-f97641eb1e70",
      "meta": {
        "profile": [ "http://hl7.org/fhir/us/qicore/StructureDefinition/qicore-condition-encounter-diagnosis" ]
      },
      "clinicalStatus": {
        "coding": [ {
          "system": "http://terminology.hl7.org/CodeSystem/condition-clinical",
          "code": "active"
        } ]
      },
      "verificationStatus": {
        "coding": [ {
          "system": "http://terminology.hl7.org/CodeSystem/condition-ver-status",
          "code": "confirmed"
        } ]
      },
      "category": [ {
        "coding": [ {
          "system": "http://terminology.hl7.org/CodeSystem/condition-category",
          "code": "encounter-diagnosis",
          "display": "Encounter Diagnosis"
        } ]
      } ],
      "code": {
        "coding": [ {
          "system": "http://snomed.info/sct",
          "version": "2021-09",
          "code": "120041000119109",
          "display": "Atrial fibrillation with rapid ventricular response (disorder)",
          "userSelected": true
        } ]
      },
      "subject": {
        "reference": "Patient/e75d7e1c-df18-487e-a8f0-0b140e120581"
      },
      "recordedDate": "2026-10-13T08:00:00.000Z"
    },
    "request": {
      "method": "PUT",
      "url": "Condition/f82590d5-8a11-4ecc-889d-f97641eb1e70"
    }
  }, {
    "fullUrl": "https://madie.cms.gov/Organization/8f1c64ba-7805-46c9-9d1f-d580366dba73",
    "resource": {
      "resourceType": "Organization",
      "id": "8f1c64ba-7805-46c9-9d1f-d580366dba73",
      "meta": {
        "profile": [ "http://hl7.org/fhir/us/qicore/StructureDefinition/qicore-organization" ]
      },
      "identifier": [ {
        "use": "temp",
        "system": "urn:oid:2.16.840.1.113883.4.4",
        "value": "21-3259825"
      } ],
      "active": true,
      "type": [ {
        "coding": [ {
          "system": "http://terminology.hl7.org/CodeSystem/organization-type",
          "code": "pay",
          "display": "Payer"
        } ]
      } ],
      "name": "Blue Cross Blue Shield of Texas",
      "telecom": [ {
        "system": "phone",
        "value": "(+1) 972-766-6900"
      } ],
      "address": [ {
        "use": "billing",
        "type": "postal",
        "line": [ "P.O. Box 660044" ],
        "city": "Dallas",
        "state": "TX",
        "postalCode": "75266-0044",
        "country": "USA"
      } ]
    },
    "request": {
      "method": "PUT",
      "url": "Organization/8f1c64ba-7805-46c9-9d1f-d580366dba73"
    }
  }, {
    "fullUrl": "https://madie.cms.gov/Practitioner/58506a3d-aee7-4a11-a074-5dcfe4ad8eb2",
    "resource": {
      "resourceType": "Practitioner",
      "id": "58506a3d-aee7-4a11-a074-5dcfe4ad8eb2",
      "meta": {
        "profile": [ "http://hl7.org/fhir/us/qicore/StructureDefinition/qicore-practitioner" ]
      },
      "identifier": [ {
        "system": "http://hl7.org/fhir/sid/us-npi",
        "value": "9999999896"
      } ],
      "name": [ {
        "family": "Evil",
        "prefix": [ "Dr" ]
      } ]
    },
    "request": {
      "method": "PUT",
      "url": "Practitioner/58506a3d-aee7-4a11-a074-5dcfe4ad8eb2"
    }
  }, {
    "fullUrl": "https://madie.cms.gov/MeasureReport/e4c3fff1-3ea7-4b4a-9b2c-5a46361e099c",
    "resource": {
      "resourceType": "MeasureReport",
      "id": "e4c3fff1-3ea7-4b4a-9b2c-5a46361e099c",
      "meta": {
        "profile": [ "http://hl7.org/fhir/us/cqfmeasures/StructureDefinition/test-case-cqfm" ]
      },
      "contained": [ {
        "resourceType": "Parameters",
        "id": "8a641fc4-3230-4a0b-b84a-7d0b619595a2-parameters",
        "parameter": [ {
          "name": "subject",
          "valueString": "e75d7e1c-df18-487e-a8f0-0b140e120581"
        } ]
      } ],
      "extension": [ {
        "url": "http://hl7.org/fhir/StructureDefinition/cqf-inputParameters",
        "valueReference": {
          "reference": "#8a641fc4-3230-4a0b-b84a-7d0b619595a2-parameters"
        }
      }, {
        "url": "http://hl7.org/fhir/us/cqfmeasures/StructureDefinition/cqfm-testCaseDescription",
        "valueMarkdown": "\"Diagnosis Attribute= Afib during encounter\nThis case tests the denominator diagnosis criteria (meets criteria). \"\n"
      } ],
      "modifierExtension": [ {
        "url": "http://hl7.org/fhir/us/cqfmeasures/StructureDefinition/cqfm-isTestCase",
        "valueBoolean": true
      } ],
      "status": "complete",
      "type": "individual",
      "measure": "https://madie.cms.gov/Measure/CMS71FHIRSTKAnticoagAFFlutter",
      "period": {
        "start": "2026-01-01",
        "end": "2026-12-31"
      },
      "group": [ {
        "id": "Group_1",
        "population": [ {
          "id": "InitialPopulation_1",
          "code": {
            "coding": [ {
              "system": "http://terminology.hl7.org/CodeSystem/measure-population",
              "code": "initial-population",
              "display": "Initial Population"
            } ]
          },
          "count": 1
        }, {
          "id": "Denominator_1",
          "code": {
            "coding": [ {
              "system": "http://terminology.hl7.org/CodeSystem/measure-population",
              "code": "denominator",
              "display": "Denominator"
            } ]
          },
          "count": 1
        }, {
          "id": "DenominatorExclusion_1",
          "code": {
            "coding": [ {
              "system": "http://terminology.hl7.org/CodeSystem/measure-population",
              "code": "denominator-exclusion",
              "display": "Denominator Exclusion"
            } ]
          },
          "count": 0
        }, {
          "id": "Numerator_1",
          "code": {
            "coding": [ {
              "system": "http://terminology.hl7.org/CodeSystem/measure-population",
              "code": "numerator",
              "display": "Numerator"
            } ]
          },
          "count": 0
        }, {
          "id": "DenominatorException_1",
          "code": {
            "coding": [ {
              "system": "http://terminology.hl7.org/CodeSystem/measure-population",
              "code": "denominator-exception",
              "display": "Denominator Exception"
            } ]
          },
          "count": 0
        } ],
        "measureScore": {
          "value": 0.0
        }
      } ],
      "evaluatedResource": [ {
        "reference": "Patient/e75d7e1c-df18-487e-a8f0-0b140e120581"
      }, {
        "reference": "Encounter/fa41392e-58b9-4b05-aaa1-d71d02eda9d9"
      }, {
        "reference": "Claim/ae5f0570-5bde-41cf-84d1-de5daace5c71"
      }, {
        "reference": "Coverage/fb940bd0-f7c5-4fab-b9f1-529fbe02a35d"
      }, {
        "reference": "Condition/f06fba3a-fed6-4a6b-935f-6c6c11236194"
      }, {
        "reference": "Condition/f82590d5-8a11-4ecc-889d-f97641eb1e70"
      }, {
        "reference": "Organization/8f1c64ba-7805-46c9-9d1f-d580366dba73"
      }, {
        "reference": "Practitioner/58506a3d-aee7-4a11-a074-5dcfe4ad8eb2"
      } ]
    },
    "request": {
      "method": "PUT",
      "url": "MeasureReport/e4c3fff1-3ea7-4b4a-9b2c-5a46361e099c"
    }
  } ]
}