{
  "resourceType": "Bundle",
  "id": "633c9d020968f8012250fc66",
  "type": "transaction",
  "entry": [ {
    "fullUrl": "https://madie.cms.gov/Patient/f07b7d1a-b0da-4d44-acc6-eb2a6dfa0da3",
    "resource": {
      "resourceType": "Patient",
      "id": "f07b7d1a-b0da-4d44-acc6-eb2a6dfa0da3",
      "meta": {
        "profile": [ "http://hl7.org/fhir/us/qicore/StructureDefinition/qicore-patient" ]
      },
      "text": {
        "status": "generated",
        "div": "<div xmlns=\"http://www.w3.org/1999/xhtml\"><div class=\"hapiHeaderText\">Anticoag@DC <b>NUMERPASS </b></div><table class=\"hapiPropertyTable\"><tbody><tr><td>Identifier</td><td>52c14de634122f39abfbd9ffaa41bc27</td></tr><tr><td>Date of birth</td><td><span>23 May 1954</span></td></tr></tbody></table></div>"
      },
      "extension": [ {
        "url": "http://hl7.org/fhir/us/core/StructureDefinition/us-core-race",
        "extension": [ {
          "url": "ombCategory",
          "valueCoding": {
            "system": "urn:oid:2.16.840.1.113883.6.238",
            "code": "1002-5",
            "display": "American Indian or Alaska Native",
            "userSelected": true
          }
        }, {
          "url": "text",
          "valueString": "American Indian or Alaska Native"
        } ]
      }, {
        "url": "http://hl7.org/fhir/us/core/StructureDefinition/us-core-ethnicity",
        "extension": [ {
          "url": "ombCategory",
          "valueCoding": {
            "system": "urn:oid:2.16.840.1.113883.6.238",
            "code": "2135-2",
            "display": "Hispanic or Latino",
            "userSelected": true
          }
        }, {
          "url": "text",
          "valueString": "Hispanic or Latino"
        } ]
      } ],
      "identifier": [ {
        "type": {
          "coding": [ {
            "system": "http://terminology.hl7.org/CodeSystem/v2-0203",
            "code": "MR"
          } ]
        },
        "system": "https://bonnie-fhir.healthit.gov/",
        "value": "633c9d020968f8012250fc66"
      } ],
      "active": true,
      "name": [ {
        "use": "usual",
        "family": "NUMERPass",
        "given": [ "Anticoag@DC" ]
      } ],
      "gender": "female",
      "birthDate": "1955-05-23"
    },
    "request": {
      "method": "PUT",
      "url": "Patient/f07b7d1a-b0da-4d44-acc6-eb2a6dfa0da3"
    }
  }, {
    "fullUrl": "https://madie.cms.gov/Encounter/808f7a3d-a668-40a2-8763-3a8331512c25",
    "resource": {
      "resourceType": "Encounter",
      "id": "808f7a3d-a668-40a2-8763-3a8331512c25",
      "meta": {
        "profile": [ "http://hl7.org/fhir/us/qicore/StructureDefinition/qicore-encounter" ]
      },
      "status": "finished",
      "class": {
        "system": "http://terminology.hl7.org/CodeSystem/v3-ActCode",
        "code": "IMP",
        "display": "inpatient encounter"
      },
      "type": [ {
        "coding": [ {
          "system": "http://snomed.info/sct",
          "code": "32485007"
        } ]
      } ],
      "subject": {
        "reference": "Patient/f07b7d1a-b0da-4d44-acc6-eb2a6dfa0da3"
      },
      "period": {
        "start": "2026-11-20T08:00:00.000Z",
        "end": "2026-11-24T08:15:00.000Z"
      },
      "length": {
        "value": 4,
        "unit": "days"
      },
      "reasonReference": [ {
        "reference": "Condition/a210b0e9-f336-48db-8699-488b3dd2afc1"
      } ]
    },
    "request": {
      "method": "PUT",
      "url": "Encounter/808f7a3d-a668-40a2-8763-3a8331512c25"
    }
  }, {
    "fullUrl": "https://madie.cms.gov/Claim/a4be8b00-d4d4-4d5c-b0c1-c76be1f04cdd",
    "resource": {
      "resourceType": "Claim",
      "id": "a4be8b00-d4d4-4d5c-b0c1-c76be1f04cdd",
      "meta": {
        "profile": [ "http://hl7.org/fhir/us/qicore/StructureDefinition/qicore-claim" ]
      },
      "status": "active",
      "type": {
        "coding": [ {
          "system": "http://terminology.hl7.org/CodeSystem/claim-type",
          "code": "institutional"
        } ]
      },
      "use": "claim",
      "patient": {
        "reference": "Patient/f07b7d1a-b0da-4d44-acc6-eb2a6dfa0da3"
      },
      "created": "2026-12-01",
      "provider": {
        "reference": "Practitioner/2e2b974d-07bc-4dff-b01b-f7f743b8339e"
      },
      "priority": {
        "coding": [ {
          "system": "http://terminology.hl7.org/CodeSystem/processpriority",
          "code": "normal"
        } ]
      },
      "diagnosis": [ {
        "sequence": 1,
        "diagnosisCodeableConcept": {
          "coding": [ {
            "system": "http://hl7.org/fhir/sid/icd-10-cm",
            "code": "I63.00"
          } ]
        },
        "type": [ {
          "coding": [ {
            "system": "http://terminology.hl7.org/CodeSystem/ex-diagnosistype",
            "code": "principal"
          } ]
        } ]
      } ],
      "insurance": [ {
        "sequence": 1,
        "focal": true,
        "coverage": {
          "reference": "Coverage/5fa041661c76ba66d9959367"
        }
      } ],
      "item": [ {
        "sequence": 1,
        "diagnosisSequence": [ 1 ],
        "productOrService": {
          "coding": [ {
            "system": "http://terminology.hl7.org/CodeSystem/ex-USCLS",
            "code": "99555"
          } ]
        },
        "encounter": [ {
          "reference": "Encounter/808f7a3d-a668-40a2-8763-3a8331512c25"
        } ]
      } ]
    },
    "request": {
      "method": "PUT",
      "url": "Claim/a4be8b00-d4d4-4d5c-b0c1-c76be1f04cdd"
    }
  }, {
    "fullUrl": "https://madie.cms.gov/MedicationRequest/9bb31f03-f2e9-44f5-b1d3-7c75fab4dd5a",
    "resource": {
      "resourceType": "MedicationRequest",
      "id": "9bb31f03-f2e9-44f5-b1d3-7c75fab4dd5a",
      "meta": {
        "profile": [ "http://hl7.org/fhir/us/qicore/StructureDefinition/qicore-medicationrequest" ]
      },
      "status": "completed",
      "intent": "order",
      "category": [ {
        "coding": [ {
          "system": "http://terminology.hl7.org/CodeSystem/medicationrequest-category",
          "code": "community",
          "display": "Community",
          "userSelected": true
        } ]
      } ],
      "medicationCodeableConcept": {
        "coding": [ {
          "system": "http://www.nlm.nih.gov/research/umls/rxnorm",
          "version": "2022-01",
          "code": "308351",
          "display": "2.5 ML argatroban 100 MG/ML Injection",
          "userSelected": true
        } ]
      },
      "subject": {
        "reference": "Patient/f07b7d1a-b0da-4d44-acc6-eb2a6dfa0da3"
      },
      "authoredOn": "2026-11-24T08:00:00.000Z",
      "requester": {
        "reference": "Practitioner/example"
      }
    },
    "request": {
      "method": "PUT",
      "url": "MedicationRequest/9bb31f03-f2e9-44f5-b1d3-7c75fab4dd5a"
    }
  }, {
    "fullUrl": "https://madie.cms.gov/Coverage/f6faaae8-eae4-4598-a387-30ef0ab060b2",
    "resource": {
      "resourceType": "Coverage",
      "id": "f6faaae8-eae4-4598-a387-30ef0ab060b2",
      "meta": {
        "profile": [ "http://hl7.org/fhir/us/qicore/StructureDefinition/qicore-coverage" ]
      },
      "status": "active",
      "subscriberId": "523435",
      "beneficiary": {
        "reference": "Patient/f07b7d1a-b0da-4d44-acc6-eb2a6dfa0da3"
      },
      "relationship": {
        "coding": [ {
          "system": "http://terminology.hl7.org/CodeSystem/subscriber-relationship",
          "code": "self"
        } ]
      },
      "payor": [ {
        "reference": "Organization/4273813a-9cce-4670-a6da-35f462fb48b0"
      } ]
    },
    "request": {
      "method": "PUT",
      "url": "Coverage/f6faaae8-eae4-4598-a387-30ef0ab060b2"
    }
  }, {
    "fullUrl": "https://madie.cms.gov/Procedure/88e35764-a5e5-4de7-9fa8-37e4d0ffacd2",
    "resource": {
      "resourceType": "Procedure",
      "id": "88e35764-a5e5-4de7-9fa8-37e4d0ffacd2",
      "meta": {
        "profile": [ "http://hl7.org/fhir/us/qicore/StructureDefinition/qicore-procedure" ]
      },
      "extension": [ {
        "url": "http://hl7.org/fhir/us/qicore/StructureDefinition/qicore-recorded",
        "valueDateTime": "2026-11-19T13:35:00.000Z"
      } ],
      "status": "completed",
      "code": {
        "coding": [ {
          "system": "http://www.cms.gov/Medicare/Coding/ICD10",
          "code": "02560ZZ"
        }, {
          "system": "http://snomed.info/sct",
          "code": "175095005"
        } ]
      },
      "subject": {
        "reference": "Patient/f07b7d1a-b0da-4d44-acc6-eb2a6dfa0da3"
      },
      "performedPeriod": {
        "start": "2026-11-20T06:00:00.000Z",
        "end": "2026-11-20T07:15:00.000Z"
      }
    },
    "request": {
      "method": "PUT",
      "url": "Procedure/88e35764-a5e5-4de7-9fa8-37e4d0ffacd2"
    }
  }, {
    "fullUrl": "https://madie.cms.gov/Condition/a210b0e9-f336-48db-8699-488b3dd2afc1",
    "resource": {
      "resourceType": "Condition",
      "id": "a210b0e9-f336-48db-8699-488b3dd2afc1",
      "meta": {
        "profile": [ "http://hl7.org/fhir/us/qicore/StructureDefinition/qicore-condition-encounter-diagnosis" ]
      },
      "clinicalStatus": {
        "coding": [ {
          "system": "http://terminology.hl7.org/CodeSystem/condition-clinical",
          "code": "active"
        } ]
      },
      "verificationStatus": {
        "coding": [ {
          "system": "http://terminology.hl7.org/CodeSystem/condition-ver-status",
          "code": "confirmed"
        } ]
      },
      "category": [ {
        "coding": [ {
          "system": "http://terminology.hl7.org/CodeSystem/condition-category",
          "code": "encounter-diagnosis",
          "display": "Encounter Diagnosis"
        } ]
      } ],
      "code": {
        "coding": [ {
          "system": "http://snomed.info/sct",
          "version": "2021-09",
          "code": "111297002",
          "display": "Nonparalytic stroke (disorder)",
          "userSelected": true
        } ]
      },
      "subject": {
        "reference": "Patient/f07b7d1a-b0da-4d44-acc6-eb2a6dfa0da3"
      },
      "recordedDate": "2026-10-13T08:00:00.000Z"
    },
    "request": {
      "method": "PUT",
      "url": "Condition/a210b0e9-f336-48db-8699-488b3dd2afc1"
    }
  }, {
    "fullUrl": "https://madie.cms.gov/Organization/4273813a-9cce-4670-a6da-35f462fb48b0",
    "resource": {
      "resourceType": "Organization",
      "id": "4273813a-9cce-4670-a6da-35f462fb48b0",
      "meta": {
        "profile": [ "http://hl7.org/fhir/us/qicore/StructureDefinition/qicore-organization" ]
      },
      "identifier": [ {
        "use": "temp",
        "system": "urn:oid:2.16.840.1.113883.4.4",
        "value": "21-3259825"
      } ],
      "active": true,
      "type": [ {
        "coding": [ {
          "system": "http://terminology.hl7.org/CodeSystem/organization-type",
          "code": "pay",
          "display": "Payer"
        } ]
      } ],
      "name": "Blue Cross Blue Shield of Texas",
      "telecom": [ {
        "system": "phone",
        "value": "(+1) 972-766-6900"
      } ],
      "address": [ {
        "use": "billing",
        "type": "postal",
        "line": [ "P.O. Box 660044" ],
        "city": "Dallas",
        "state": "TX",
        "postalCode": "75266-0044",
        "country": "USA"
      } ]
    },
    "request": {
      "method": "PUT",
      "url": "Organization/4273813a-9cce-4670-a6da-35f462fb48b0"
    }
  }, {
    "fullUrl": "https://madie.cms.gov/Practitioner/2e2b974d-07bc-4dff-b01b-f7f743b8339e",
    "resource": {
      "resourceType": "Practitioner",
      "id": "2e2b974d-07bc-4dff-b01b-f7f743b8339e",
      "meta": {
        "profile": [ "http://hl7.org/fhir/us/qicore/StructureDefinition/qicore-practitioner" ]
      },
      "identifier": [ {
        "system": "http://hl7.org/fhir/sid/us-npi",
        "value": "9999999896"
      } ],
      "name": [ {
        "family": "Evil",
        "prefix": [ "Dr" ]
      } ]
    },
    "request": {
      "method": "PUT",
      "url": "Practitioner/2e2b974d-07bc-4dff-b01b-f7f743b8339e"
    }
  }, {
    "fullUrl": "https://madie.cms.gov/MeasureReport/c207d625-1fa1-48df-ac2a-1f611a1a64b7",
    "resource": {
      "resourceType": "MeasureReport",
      "id": "c207d625-1fa1-48df-ac2a-1f611a1a64b7",
      "meta": {
        "profile": [ "http://hl7.org/fhir/us/cqfmeasures/StructureDefinition/test-case-cqfm" ]
      },
      "contained": [ {
        "resourceType": "Parameters",
        "id": "c2a58c4f-16e8-4e46-ba29-793829b34b28-parameters",
        "parameter": [ {
          "name": "subject",
          "valueString": "f07b7d1a-b0da-4d44-acc6-eb2a6dfa0da3"
        } ]
      } ],
      "extension": [ {
        "url": "http://hl7.org/fhir/StructureDefinition/cqf-inputParameters",
        "valueReference": {
          "reference": "#c2a58c4f-16e8-4e46-ba29-793829b34b28-parameters"
        }
      }, {
        "url": "http://hl7.org/fhir/us/cqfmeasures/StructureDefinition/cqfm-testCaseDescription",
        "valueMarkdown": "Pt. discharged on anticoagulant, starts during OccurA\n"
      } ],
      "modifierExtension": [ {
        "url": "http://hl7.org/fhir/us/cqfmeasures/StructureDefinition/cqfm-isTestCase",
        "valueBoolean": true
      } ],
      "status": "complete",
      "type": "individual",
      "measure": "https://madie.cms.gov/Measure/CMS71FHIRSTKAnticoagAFFlutter",
      "period": {
        "start": "2026-01-01",
        "end": "2026-12-31"
      },
      "group": [ {
        "id": "Group_1",
        "population": [ {
          "id": "InitialPopulation_1",
          "code": {
            "coding": [ {
              "system": "http://terminology.hl7.org/CodeSystem/measure-population",
              "code": "initial-population",
              "display": "Initial Population"
            } ]
          },
          "count": 1
        }, {
          "id": "Denominator_1",
          "code": {
            "coding": [ {
              "system": "http://terminology.hl7.org/CodeSystem/measure-population",
              "code": "denominator",
              "display": "Denominator"
            } ]
          },
          "count": 1
        }, {
          "id": "DenominatorExclusion_1",
          "code": {
            "coding": [ {
              "system": "http://terminology.hl7.org/CodeSystem/measure-population",
              "code": "denominator-exclusion",
              "display": "Denominator Exclusion"
            } ]
          },
          "count": 0
        }, {
          "id": "Numerator_1",
          "code": {
            "coding": [ {
              "system": "http://terminology.hl7.org/CodeSystem/measure-population",
              "code": "numerator",
              "display": "Numerator"
            } ]
          },
          "count": 1
        }, {
          "id": "DenominatorException_1",
          "code": {
            "coding": [ {
              "system": "http://terminology.hl7.org/CodeSystem/measure-population",
              "code": "denominator-exception",
              "display": "Denominator Exception"
            } ]
          },
          "count": 0
        } ],
        "measureScore": {
          "value": 0.0
        }
      } ],
      "evaluatedResource": [ {
        "reference": "Patient/f07b7d1a-b0da-4d44-acc6-eb2a6dfa0da3"
      }, {
        "reference": "Encounter/808f7a3d-a668-40a2-8763-3a8331512c25"
      }, {
        "reference": "Claim/a4be8b00-d4d4-4d5c-b0c1-c76be1f04cdd"
      }, {
        "reference": "MedicationRequest/9bb31f03-f2e9-44f5-b1d3-7c75fab4dd5a"
      }, {
        "reference": "Coverage/f6faaae8-eae4-4598-a387-30ef0ab060b2"
      }, {
        "reference": "Procedure/88e35764-a5e5-4de7-9fa8-37e4d0ffacd2"
      }, {
        "reference": "Condition/a210b0e9-f336-48db-8699-488b3dd2afc1"
      }, {
        "reference": "Organization/4273813a-9cce-4670-a6da-35f462fb48b0"
      }, {
        "reference": "Practitioner/2e2b974d-07bc-4dff-b01b-f7f743b8339e"
      } ]
    },
    "request": {
      "method": "PUT",
      "url": "MeasureReport/c207d625-1fa1-48df-ac2a-1f611a1a64b7"
    }
  } ]
}