{
  "resourceType": "Bundle",
  "id": "633c9d040968f8012250fca0",
  "type": "transaction",
  "entry": [ {
    "fullUrl": "https://madie.cms.gov/Patient/541c6790-5a21-41ca-8e4e-49da54a28b9b",
    "resource": {
      "resourceType": "Patient",
      "id": "541c6790-5a21-41ca-8e4e-49da54a28b9b",
      "meta": {
        "profile": [ "http://hl7.org/fhir/us/qicore/StructureDefinition/qicore-patient" ]
      },
      "text": {
        "status": "generated",
        "div": "<div xmlns=\"http://www.w3.org/1999/xhtml\"><div class=\"hapiHeaderText\">CMOdurEnc_NoEDObs&lt;1hrBFEnc <b>DENEXPASS </b></div><table class=\"hapiPropertyTable\"><tbody><tr><td>Identifier</td><td>02b0ef2e973beaec0a8b1e55c0dadc67beed7a4482dce2ae4bf0963095b983fa</td></tr><tr><td>Date of birth</td><td><span>18 September 1985</span></td></tr></tbody></table></div>"
      },
      "extension": [ {
        "url": "http://hl7.org/fhir/us/core/StructureDefinition/us-core-race",
        "extension": [ {
          "url": "ombCategory",
          "valueCoding": {
            "system": "urn:oid:2.16.840.1.113883.6.238",
            "code": "1002-5",
            "display": "American Indian or Alaska Native",
            "userSelected": true
          }
        }, {
          "url": "text",
          "valueString": "American Indian or Alaska Native"
        } ]
      }, {
        "url": "http://hl7.org/fhir/us/core/StructureDefinition/us-core-ethnicity",
        "extension": [ {
          "url": "ombCategory",
          "valueCoding": {
            "system": "urn:oid:2.16.840.1.113883.6.238",
            "code": "2135-2",
            "display": "Hispanic or Latino",
            "userSelected": true
          }
        }, {
          "url": "text",
          "valueString": "Hispanic or Latino"
        } ]
      } ],
      "identifier": [ {
        "type": {
          "coding": [ {
            "system": "http://terminology.hl7.org/CodeSystem/v2-0203",
            "code": "MR"
          } ]
        },
        "system": "https://bonnie-fhir.healthit.gov/",
        "value": "633c9d040968f8012250fca0"
      } ],
      "active": true,
      "name": [ {
        "use": "usual",
        "family": "DENEXPass",
        "given": [ "CMOdurEncNoEDObsLT1hrBFEnc" ]
      } ],
      "gender": "female",
      "birthDate": "1986-09-18"
    },
    "request": {
      "method": "PUT",
      "url": "Patient/541c6790-5a21-41ca-8e4e-49da54a28b9b"
    }
  }, {
    "fullUrl": "https://madie.cms.gov/Condition/202cab8d-0e09-4f24-b787-ce4f3366b85c",
    "resource": {
      "resourceType": "Condition",
      "id": "202cab8d-0e09-4f24-b787-ce4f3366b85c",
      "meta": {
        "profile": [ "http://hl7.org/fhir/us/qicore/StructureDefinition/qicore-condition-encounter-diagnosis" ]
      },
      "clinicalStatus": {
        "coding": [ {
          "system": "http://terminology.hl7.org/CodeSystem/condition-clinical",
          "code": "inactive"
        } ]
      },
      "verificationStatus": {
        "coding": [ {
          "system": "http://terminology.hl7.org/CodeSystem/condition-ver-status",
          "code": "confirmed"
        } ]
      },
      "category": [ {
        "coding": [ {
          "system": "http://terminology.hl7.org/CodeSystem/condition-category",
          "code": "encounter-diagnosis",
          "display": "Encounter Diagnosis"
        } ]
      } ],
      "code": {
        "coding": [ {
          "system": "http://hl7.org/fhir/sid/icd-10-cm",
          "code": "I48.20"
        }, {
          "system": "http://hl7.org/fhir/sid/icd-10-cm",
          "code": "I48.0"
        }, {
          "system": "http://snomed.info/sct",
          "code": "5370000"
        } ]
      },
      "subject": {
        "reference": "Patient/541c6790-5a21-41ca-8e4e-49da54a28b9b"
      },
      "onsetDateTime": "2026-02-11T08:00:00.000Z",
      "abatementDateTime": "2026-02-11T08:15:00.000Z"
    },
    "request": {
      "method": "PUT",
      "url": "Condition/202cab8d-0e09-4f24-b787-ce4f3366b85c"
    }
  }, {
    "fullUrl": "https://madie.cms.gov/Condition/7e70f690-0147-4531-8925-7dc03e77f8ad",
    "resource": {
      "resourceType": "Condition",
      "id": "7e70f690-0147-4531-8925-7dc03e77f8ad",
      "meta": {
        "profile": [ "http://hl7.org/fhir/us/qicore/StructureDefinition/qicore-condition-problems-health-concerns" ]
      },
      "clinicalStatus": {
        "coding": [ {
          "system": "http://terminology.hl7.org/CodeSystem/condition-clinical",
          "code": "inactive"
        } ]
      },
      "verificationStatus": {
        "coding": [ {
          "system": "http://terminology.hl7.org/CodeSystem/condition-ver-status",
          "code": "confirmed"
        } ]
      },
      "category": [ {
        "coding": [ {
          "system": "http://terminology.hl7.org/CodeSystem/condition-category",
          "code": "problem-list-item"
        } ]
      } ],
      "code": {
        "coding": [ {
          "system": "http://hl7.org/fhir/sid/icd-10-cm",
          "code": "I48.20"
        }, {
          "system": "http://hl7.org/fhir/sid/icd-10-cm",
          "code": "I48.0"
        }, {
          "system": "http://snomed.info/sct",
          "code": "5370000"
        } ]
      },
      "subject": {
        "reference": "Patient/541c6790-5a21-41ca-8e4e-49da54a28b9b"
      },
      "onsetDateTime": "2026-10-01T09:00:00.000Z",
      "abatementDateTime": "2026-10-12T08:15:00.000Z"
    },
    "request": {
      "method": "PUT",
      "url": "Condition/7e70f690-0147-4531-8925-7dc03e77f8ad"
    }
  }, {
    "fullUrl": "https://madie.cms.gov/Encounter/97a90b42-a35b-4103-b807-46e90bc8a285",
    "resource": {
      "resourceType": "Encounter",
      "id": "97a90b42-a35b-4103-b807-46e90bc8a285",
      "meta": {
        "profile": [ "http://hl7.org/fhir/us/qicore/StructureDefinition/qicore-encounter" ]
      },
      "status": "finished",
      "class": {
        "system": "http://terminology.hl7.org/CodeSystem/v3-ActCode",
        "code": "OBSENC",
        "display": "observation encounter"
      },
      "type": [ {
        "coding": [ {
          "system": "http://snomed.info/sct",
          "code": "448851000124103"
        } ]
      } ],
      "subject": {
        "reference": "Patient/541c6790-5a21-41ca-8e4e-49da54a28b9b"
      },
      "period": {
        "start": "2026-10-01T06:00:00.000Z",
        "end": "2026-10-01T09:59:00.000Z"
      },
      "length": {
        "value": 0,
        "unit": "days"
      }
    },
    "request": {
      "method": "PUT",
      "url": "Encounter/97a90b42-a35b-4103-b807-46e90bc8a285"
    }
  }, {
    "fullUrl": "https://madie.cms.gov/Encounter/084aabb0-743a-4fab-be86-2b75f370782f",
    "resource": {
      "resourceType": "Encounter",
      "id": "084aabb0-743a-4fab-be86-2b75f370782f",
      "meta": {
        "profile": [ "http://hl7.org/fhir/us/qicore/StructureDefinition/qicore-encounter" ]
      },
      "status": "finished",
      "class": {
        "system": "http://terminology.hl7.org/CodeSystem/v3-ActCode",
        "code": "IMP",
        "display": "inpatient encounter"
      },
      "type": [ {
        "coding": [ {
          "system": "http://snomed.info/sct",
          "code": "32485007"
        } ]
      } ],
      "subject": {
        "reference": "Patient/541c6790-5a21-41ca-8e4e-49da54a28b9b"
      },
      "period": {
        "start": "2026-10-01T10:00:00.000Z",
        "end": "2026-10-12T08:15:00.000Z"
      },
      "length": {
        "value": 11,
        "unit": "days"
      },
      "reasonReference": [ {
        "reference": "Condition/7e70f690-0147-4531-8925-7dc03e77f8ad"
      } ]
    },
    "request": {
      "method": "PUT",
      "url": "Encounter/084aabb0-743a-4fab-be86-2b75f370782f"
    }
  }, {
    "fullUrl": "https://madie.cms.gov/Claim/8900bea7-9e75-43b5-b9cc-42641d31f8b3",
    "resource": {
      "resourceType": "Claim",
      "id": "8900bea7-9e75-43b5-b9cc-42641d31f8b3",
      "meta": {
        "profile": [ "http://hl7.org/fhir/us/qicore/StructureDefinition/qicore-claim" ]
      },
      "status": "active",
      "type": {
        "coding": [ {
          "system": "http://terminology.hl7.org/CodeSystem/claim-type",
          "code": "institutional"
        } ]
      },
      "use": "claim",
      "patient": {
        "reference": "Patient/541c6790-5a21-41ca-8e4e-49da54a28b9b"
      },
      "created": "2026-12-01",
      "provider": {
        "reference": "Practitioner/eaf46d9e-4d30-45a1-b215-73f158eacbfc"
      },
      "priority": {
        "coding": [ {
          "system": "http://terminology.hl7.org/CodeSystem/processpriority",
          "code": "normal"
        } ]
      },
      "diagnosis": [ {
        "sequence": 1,
        "diagnosisCodeableConcept": {
          "coding": [ {
            "system": "http://hl7.org/fhir/sid/icd-10-cm",
            "code": "I63.00"
          } ]
        },
        "type": [ {
          "coding": [ {
            "system": "http://terminology.hl7.org/CodeSystem/ex-diagnosistype",
            "code": "principal"
          } ]
        } ]
      } ],
      "insurance": [ {
        "sequence": 1,
        "focal": true,
        "coverage": {
          "reference": "Coverage/5fa041661c76ba66d9959367"
        }
      } ],
      "item": [ {
        "sequence": 1,
        "diagnosisSequence": [ 1 ],
        "productOrService": {
          "coding": [ {
            "system": "http://terminology.hl7.org/CodeSystem/ex-USCLS",
            "code": "99555"
          } ]
        },
        "encounter": [ {
          "reference": "Encounter/084aabb0-743a-4fab-be86-2b75f370782f"
        } ]
      } ]
    },
    "request": {
      "method": "PUT",
      "url": "Claim/8900bea7-9e75-43b5-b9cc-42641d31f8b3"
    }
  }, {
    "fullUrl": "https://madie.cms.gov/ServiceRequest/7a27135a-aa06-4cc0-967d-c3ba0ac9c50f",
    "resource": {
      "resourceType": "ServiceRequest",
      "id": "7a27135a-aa06-4cc0-967d-c3ba0ac9c50f",
      "meta": {
        "profile": [ "http://hl7.org/fhir/us/qicore/StructureDefinition/qicore-servicerequest" ]
      },
      "status": "active",
      "intent": "order",
      "code": {
        "coding": [ {
          "system": "http://snomed.info/sct",
          "code": "133918004"
        } ]
      },
      "subject": {
        "reference": "Patient/541c6790-5a21-41ca-8e4e-49da54a28b9b"
      },
      "authoredOn": "2026-10-03T00:00:00.000Z"
    },
    "request": {
      "method": "PUT",
      "url": "ServiceRequest/7a27135a-aa06-4cc0-967d-c3ba0ac9c50f"
    }
  }, {
    "fullUrl": "https://madie.cms.gov/Coverage/9d0ecd36-1708-4b20-9758-9bb584160a77",
    "resource": {
      "resourceType": "Coverage",
      "id": "9d0ecd36-1708-4b20-9758-9bb584160a77",
      "status": "active",
      "subscriberId": "523435",
      "beneficiary": {
        "reference": "Patient/541c6790-5a21-41ca-8e4e-49da54a28b9b"
      },
      "relationship": {
        "coding": [ {
          "system": "http://terminology.hl7.org/CodeSystem/subscriber-relationship",
          "code": "self"
        } ]
      },
      "period": {
        "start": "1986-09-18T08:00:00.000Z"
      },
      "payor": [ {
        "reference": "Organization/87aacd0e-bcc6-4213-8434-5feb3d044a99"
      } ]
    },
    "request": {
      "method": "PUT",
      "url": "Coverage/9d0ecd36-1708-4b20-9758-9bb584160a77"
    }
  }, {
    "fullUrl": "https://madie.cms.gov/Condition/cb1ea454-9670-43a1-91e9-2e8b467bb48a",
    "resource": {
      "resourceType": "Condition",
      "id": "cb1ea454-9670-43a1-91e9-2e8b467bb48a",
      "meta": {
        "profile": [ "http://hl7.org/fhir/us/qicore/StructureDefinition/qicore-condition-encounter-diagnosis" ]
      },
      "clinicalStatus": {
        "coding": [ {
          "system": "http://terminology.hl7.org/CodeSystem/condition-clinical",
          "code": "active"
        } ]
      },
      "verificationStatus": {
        "coding": [ {
          "system": "http://terminology.hl7.org/CodeSystem/condition-ver-status",
          "code": "confirmed"
        } ]
      },
      "category": [ {
        "coding": [ {
          "system": "http://terminology.hl7.org/CodeSystem/condition-category",
          "code": "encounter-diagnosis",
          "display": "Encounter Diagnosis"
        } ]
      } ],
      "code": {
        "coding": [ {
          "system": "http://snomed.info/sct",
          "version": "2021-09",
          "code": "111297002",
          "display": "Nonparalytic stroke (disorder)",
          "userSelected": true
        } ]
      },
      "subject": {
        "reference": "Patient/541c6790-5a21-41ca-8e4e-49da54a28b9b"
      },
      "recordedDate": "2026-10-13T08:00:00.000Z"
    },
    "request": {
      "method": "PUT",
      "url": "Condition/cb1ea454-9670-43a1-91e9-2e8b467bb48a"
    }
  }, {
    "fullUrl": "https://madie.cms.gov/Organization/87aacd0e-bcc6-4213-8434-5feb3d044a99",
    "resource": {
      "resourceType": "Organization",
      "id": "87aacd0e-bcc6-4213-8434-5feb3d044a99",
      "meta": {
        "profile": [ "http://hl7.org/fhir/us/qicore/StructureDefinition/qicore-organization" ]
      },
      "identifier": [ {
        "use": "temp",
        "system": "urn:oid:2.16.840.1.113883.4.4",
        "value": "21-3259825"
      } ],
      "active": true,
      "type": [ {
        "coding": [ {
          "system": "http://terminology.hl7.org/CodeSystem/organization-type",
          "code": "pay",
          "display": "Payer"
        } ]
      } ],
      "name": "Blue Cross Blue Shield of Texas",
      "telecom": [ {
        "system": "phone",
        "value": "(+1) 972-766-6900"
      } ],
      "address": [ {
        "use": "billing",
        "type": "postal",
        "line": [ "P.O. Box 660044" ],
        "city": "Dallas",
        "state": "TX",
        "postalCode": "75266-0044",
        "country": "USA"
      } ]
    },
    "request": {
      "method": "PUT",
      "url": "Organization/87aacd0e-bcc6-4213-8434-5feb3d044a99"
    }
  }, {
    "fullUrl": "https://madie.cms.gov/Practitioner/eaf46d9e-4d30-45a1-b215-73f158eacbfc",
    "resource": {
      "resourceType": "Practitioner",
      "id": "eaf46d9e-4d30-45a1-b215-73f158eacbfc",
      "meta": {
        "profile": [ "http://hl7.org/fhir/us/qicore/StructureDefinition/qicore-practitioner" ]
      },
      "identifier": [ {
        "system": "http://hl7.org/fhir/sid/us-npi",
        "value": "9999999896"
      } ],
      "name": [ {
        "family": "Evil",
        "prefix": [ "Dr" ]
      } ]
    },
    "request": {
      "method": "PUT",
      "url": "Practitioner/eaf46d9e-4d30-45a1-b215-73f158eacbfc"
    }
  }, {
    "fullUrl": "https://madie.cms.gov/MeasureReport/f6162e44-fd85-43c1-9fcf-89e6a07a1207",
    "resource": {
      "resourceType": "MeasureReport",
      "id": "f6162e44-fd85-43c1-9fcf-89e6a07a1207",
      "meta": {
        "profile": [ "http://hl7.org/fhir/us/cqfmeasures/StructureDefinition/test-case-cqfm" ]
      },
      "contained": [ {
        "resourceType": "Parameters",
        "id": "ab43992e-71a5-425a-b096-313414953b69-parameters",
        "parameter": [ {
          "name": "subject",
          "valueString": "541c6790-5a21-41ca-8e4e-49da54a28b9b"
        } ]
      } ],
      "extension": [ {
        "url": "http://hl7.org/fhir/StructureDefinition/cqf-inputParameters",
        "valueReference": {
          "reference": "#ab43992e-71a5-425a-b096-313414953b69-parameters"
        }
      }, {
        "url": "http://hl7.org/fhir/us/cqfmeasures/StructureDefinition/cqfm-testCaseDescription",
        "valueMarkdown": "\"Patient receives CMO order during Observation, ED visit ends 1 min. before Obs, Obs ends 1 min before inpatient start. Testing HospitalizationWithObservation function.\n\n\"\n"
      } ],
      "modifierExtension": [ {
        "url": "http://hl7.org/fhir/us/cqfmeasures/StructureDefinition/cqfm-isTestCase",
        "valueBoolean": true
      } ],
      "status": "complete",
      "type": "individual",
      "measure": "https://madie.cms.gov/Measure/CMS71FHIRSTKAnticoagAFFlutter",
      "period": {
        "start": "2026-01-01",
        "end": "2026-12-31"
      },
      "group": [ {
        "id": "Group_1",
        "population": [ {
          "id": "InitialPopulation_1",
          "code": {
            "coding": [ {
              "system": "http://terminology.hl7.org/CodeSystem/measure-population",
              "code": "initial-population",
              "display": "Initial Population"
            } ]
          },
          "count": 1
        }, {
          "id": "Denominator_1",
          "code": {
            "coding": [ {
              "system": "http://terminology.hl7.org/CodeSystem/measure-population",
              "code": "denominator",
              "display": "Denominator"
            } ]
          },
          "count": 1
        }, {
          "id": "DenominatorExclusion_1",
          "code": {
            "coding": [ {
              "system": "http://terminology.hl7.org/CodeSystem/measure-population",
              "code": "denominator-exclusion",
              "display": "Denominator Exclusion"
            } ]
          },
          "count": 1
        }, {
          "id": "Numerator_1",
          "code": {
            "coding": [ {
              "system": "http://terminology.hl7.org/CodeSystem/measure-population",
              "code": "numerator",
              "display": "Numerator"
            } ]
          },
          "count": 0
        }, {
          "id": "DenominatorException_1",
          "code": {
            "coding": [ {
              "system": "http://terminology.hl7.org/CodeSystem/measure-population",
              "code": "denominator-exception",
              "display": "Denominator Exception"
            } ]
          },
          "count": 0
        } ],
        "measureScore": {
          "value": 0.0
        }
      } ],
      "evaluatedResource": [ {
        "reference": "Patient/541c6790-5a21-41ca-8e4e-49da54a28b9b"
      }, {
        "reference": "Condition/202cab8d-0e09-4f24-b787-ce4f3366b85c"
      }, {
        "reference": "Condition/7e70f690-0147-4531-8925-7dc03e77f8ad"
      }, {
        "reference": "Encounter/97a90b42-a35b-4103-b807-46e90bc8a285"
      }, {
        "reference": "Encounter/084aabb0-743a-4fab-be86-2b75f370782f"
      }, {
        "reference": "Claim/8900bea7-9e75-43b5-b9cc-42641d31f8b3"
      }, {
        "reference": "ServiceRequest/7a27135a-aa06-4cc0-967d-c3ba0ac9c50f"
      }, {
        "reference": "Coverage/9d0ecd36-1708-4b20-9758-9bb584160a77"
      }, {
        "reference": "Condition/cb1ea454-9670-43a1-91e9-2e8b467bb48a"
      }, {
        "reference": "Organization/87aacd0e-bcc6-4213-8434-5feb3d044a99"
      }, {
        "reference": "Practitioner/eaf46d9e-4d30-45a1-b215-73f158eacbfc"
      } ]
    },
    "request": {
      "method": "PUT",
      "url": "MeasureReport/f6162e44-fd85-43c1-9fcf-89e6a07a1207"
    }
  } ]
}