{
  "resourceType": "Bundle",
  "id": "633c9d020968f8012250fc67",
  "type": "transaction",
  "entry": [ {
    "fullUrl": "https://madie.cms.gov/Patient/cec2b099-7f6d-4260-a2f8-bc0ed0b9c3e5",
    "resource": {
      "resourceType": "Patient",
      "id": "cec2b099-7f6d-4260-a2f8-bc0ed0b9c3e5",
      "meta": {
        "profile": [ "http://hl7.org/fhir/us/qicore/StructureDefinition/qicore-patient" ]
      },
      "text": {
        "status": "generated",
        "div": "<div xmlns=\"http://www.w3.org/1999/xhtml\"><div class=\"hapiHeaderText\">NoDCstatus <b>DENEXFAIL </b></div><table class=\"hapiPropertyTable\"><tbody><tr><td>Identifier</td><td>a1386c36da1b287caf9fd1b8d75c10d3</td></tr><tr><td>Date of birth</td><td><span>31 July 1969</span></td></tr></tbody></table></div>"
      },
      "extension": [ {
        "url": "http://hl7.org/fhir/us/core/StructureDefinition/us-core-race",
        "extension": [ {
          "url": "ombCategory",
          "valueCoding": {
            "system": "urn:oid:2.16.840.1.113883.6.238",
            "code": "1002-5",
            "display": "American Indian or Alaska Native",
            "userSelected": true
          }
        }, {
          "url": "text",
          "valueString": "American Indian or Alaska Native"
        } ]
      }, {
        "url": "http://hl7.org/fhir/us/core/StructureDefinition/us-core-ethnicity",
        "extension": [ {
          "url": "ombCategory",
          "valueCoding": {
            "system": "urn:oid:2.16.840.1.113883.6.238",
            "code": "2135-2",
            "display": "Hispanic or Latino",
            "userSelected": true
          }
        }, {
          "url": "text",
          "valueString": "Hispanic or Latino"
        } ]
      } ],
      "identifier": [ {
        "type": {
          "coding": [ {
            "system": "http://terminology.hl7.org/CodeSystem/v2-0203",
            "code": "MR"
          } ]
        },
        "system": "https://bonnie-fhir.healthit.gov/",
        "value": "633c9d020968f8012250fc67"
      } ],
      "active": true,
      "name": [ {
        "use": "usual",
        "family": "DENEXFail",
        "given": [ "NoDCstatus" ]
      } ],
      "gender": "male",
      "birthDate": "1970-07-31"
    },
    "request": {
      "method": "PUT",
      "url": "Patient/cec2b099-7f6d-4260-a2f8-bc0ed0b9c3e5"
    }
  }, {
    "fullUrl": "https://madie.cms.gov/Encounter/1b9997b0-c72f-48f8-866c-9e191a03370b",
    "resource": {
      "resourceType": "Encounter",
      "id": "1b9997b0-c72f-48f8-866c-9e191a03370b",
      "meta": {
        "profile": [ "http://hl7.org/fhir/us/qicore/StructureDefinition/qicore-encounter" ]
      },
      "status": "finished",
      "class": {
        "system": "http://terminology.hl7.org/CodeSystem/v3-ActCode",
        "code": "EMER",
        "display": "emergency"
      },
      "type": [ {
        "coding": [ {
          "system": "http://snomed.info/sct",
          "code": "4525004"
        } ]
      } ],
      "subject": {
        "reference": "Patient/cec2b099-7f6d-4260-a2f8-bc0ed0b9c3e5"
      },
      "period": {
        "start": "2026-11-20T07:00:00.000Z",
        "end": "2026-11-20T07:45:00.000Z"
      },
      "length": {
        "value": 0,
        "unit": "days"
      }
    },
    "request": {
      "method": "PUT",
      "url": "Encounter/1b9997b0-c72f-48f8-866c-9e191a03370b"
    }
  }, {
    "fullUrl": "https://madie.cms.gov/Encounter/4f3777a1-85db-4b4d-83fe-1875a62ade88",
    "resource": {
      "resourceType": "Encounter",
      "id": "4f3777a1-85db-4b4d-83fe-1875a62ade88",
      "meta": {
        "profile": [ "http://hl7.org/fhir/us/qicore/StructureDefinition/qicore-encounter" ]
      },
      "status": "finished",
      "class": {
        "system": "http://terminology.hl7.org/CodeSystem/v3-ActCode",
        "code": "IMP",
        "display": "inpatient encounter"
      },
      "type": [ {
        "coding": [ {
          "system": "http://snomed.info/sct",
          "code": "32485007"
        } ]
      } ],
      "subject": {
        "reference": "Patient/cec2b099-7f6d-4260-a2f8-bc0ed0b9c3e5"
      },
      "period": {
        "start": "2026-11-20T08:00:00.000Z",
        "end": "2026-11-24T08:15:00.000Z"
      },
      "length": {
        "value": 4,
        "unit": "days"
      }
    },
    "request": {
      "method": "PUT",
      "url": "Encounter/4f3777a1-85db-4b4d-83fe-1875a62ade88"
    }
  }, {
    "fullUrl": "https://madie.cms.gov/Claim/141e3ea7-7aa2-4d4f-b893-a82df887c986",
    "resource": {
      "resourceType": "Claim",
      "id": "141e3ea7-7aa2-4d4f-b893-a82df887c986",
      "meta": {
        "profile": [ "http://hl7.org/fhir/us/qicore/StructureDefinition/qicore-claim" ]
      },
      "status": "active",
      "type": {
        "coding": [ {
          "system": "http://terminology.hl7.org/CodeSystem/claim-type",
          "code": "institutional"
        } ]
      },
      "use": "claim",
      "patient": {
        "reference": "Patient/cec2b099-7f6d-4260-a2f8-bc0ed0b9c3e5"
      },
      "created": "2026-12-01",
      "provider": {
        "reference": "Practitioner/7114f35d-1f31-448a-b1da-81bc2248df3b"
      },
      "priority": {
        "coding": [ {
          "system": "http://terminology.hl7.org/CodeSystem/processpriority",
          "code": "normal"
        } ]
      },
      "diagnosis": [ {
        "sequence": 1,
        "diagnosisCodeableConcept": {
          "coding": [ {
            "system": "http://hl7.org/fhir/sid/icd-10-cm",
            "code": "I63.00"
          } ]
        },
        "type": [ {
          "coding": [ {
            "system": "http://terminology.hl7.org/CodeSystem/ex-diagnosistype",
            "code": "principal"
          } ]
        } ]
      } ],
      "insurance": [ {
        "sequence": 1,
        "focal": true,
        "coverage": {
          "reference": "Coverage/5fa041661c76ba66d9959367"
        }
      } ],
      "item": [ {
        "sequence": 1,
        "diagnosisSequence": [ 1 ],
        "productOrService": {
          "coding": [ {
            "system": "http://terminology.hl7.org/CodeSystem/ex-USCLS",
            "code": "99555"
          } ]
        },
        "encounter": [ {
          "reference": "Encounter/4f3777a1-85db-4b4d-83fe-1875a62ade88"
        } ]
      } ]
    },
    "request": {
      "method": "PUT",
      "url": "Claim/141e3ea7-7aa2-4d4f-b893-a82df887c986"
    }
  }, {
    "fullUrl": "https://madie.cms.gov/Coverage/6d913b43-afcb-4183-b279-2993b04cc2aa",
    "resource": {
      "resourceType": "Coverage",
      "id": "6d913b43-afcb-4183-b279-2993b04cc2aa",
      "meta": {
        "profile": [ "http://hl7.org/fhir/us/qicore/StructureDefinition/qicore-coverage" ]
      },
      "status": "active",
      "subscriberId": "523435",
      "beneficiary": {
        "reference": "Patient/cec2b099-7f6d-4260-a2f8-bc0ed0b9c3e5"
      },
      "relationship": {
        "coding": [ {
          "system": "http://terminology.hl7.org/CodeSystem/subscriber-relationship",
          "code": "self"
        } ]
      },
      "payor": [ {
        "reference": "Organization/29715726-fdaa-4ee8-bfec-7f8115e4d01a"
      } ]
    },
    "request": {
      "method": "PUT",
      "url": "Coverage/6d913b43-afcb-4183-b279-2993b04cc2aa"
    }
  }, {
    "fullUrl": "https://madie.cms.gov/Procedure/34a4b95f-bab9-4933-8db6-3c3c921465e9",
    "resource": {
      "resourceType": "Procedure",
      "id": "34a4b95f-bab9-4933-8db6-3c3c921465e9",
      "meta": {
        "profile": [ "http://hl7.org/fhir/us/qicore/StructureDefinition/qicore-procedure" ]
      },
      "extension": [ {
        "url": "http://hl7.org/fhir/us/qicore/StructureDefinition/qicore-recorded",
        "valueDateTime": "2026-11-19T13:35:00.000Z"
      } ],
      "status": "completed",
      "code": {
        "coding": [ {
          "system": "http://www.cms.gov/Medicare/Coding/ICD10",
          "code": "02560ZZ"
        }, {
          "system": "http://snomed.info/sct",
          "code": "175095005"
        } ]
      },
      "subject": {
        "reference": "Patient/cec2b099-7f6d-4260-a2f8-bc0ed0b9c3e5"
      },
      "performedPeriod": {
        "start": "2026-11-19T08:00:00.000Z",
        "end": "2026-11-20T08:15:00.000Z"
      }
    },
    "request": {
      "method": "PUT",
      "url": "Procedure/34a4b95f-bab9-4933-8db6-3c3c921465e9"
    }
  }, {
    "fullUrl": "https://madie.cms.gov/Condition/61d8d14a-6c9c-488e-ae53-670b3e4cc828",
    "resource": {
      "resourceType": "Condition",
      "id": "61d8d14a-6c9c-488e-ae53-670b3e4cc828",
      "meta": {
        "profile": [ "http://hl7.org/fhir/us/qicore/StructureDefinition/qicore-condition-encounter-diagnosis" ]
      },
      "clinicalStatus": {
        "coding": [ {
          "system": "http://terminology.hl7.org/CodeSystem/condition-clinical",
          "code": "active"
        } ]
      },
      "verificationStatus": {
        "coding": [ {
          "system": "http://terminology.hl7.org/CodeSystem/condition-ver-status",
          "code": "confirmed"
        } ]
      },
      "category": [ {
        "coding": [ {
          "system": "http://terminology.hl7.org/CodeSystem/condition-category",
          "code": "encounter-diagnosis",
          "display": "Encounter Diagnosis"
        } ]
      } ],
      "code": {
        "coding": [ {
          "system": "http://snomed.info/sct",
          "version": "2021-09",
          "code": "111297002",
          "display": "Nonparalytic stroke (disorder)",
          "userSelected": true
        } ]
      },
      "subject": {
        "reference": "Patient/cec2b099-7f6d-4260-a2f8-bc0ed0b9c3e5"
      },
      "recordedDate": "2026-10-13T08:00:00.000Z"
    },
    "request": {
      "method": "PUT",
      "url": "Condition/61d8d14a-6c9c-488e-ae53-670b3e4cc828"
    }
  }, {
    "fullUrl": "https://madie.cms.gov/Organization/29715726-fdaa-4ee8-bfec-7f8115e4d01a",
    "resource": {
      "resourceType": "Organization",
      "id": "29715726-fdaa-4ee8-bfec-7f8115e4d01a",
      "meta": {
        "profile": [ "http://hl7.org/fhir/us/qicore/StructureDefinition/qicore-organization" ]
      },
      "identifier": [ {
        "use": "temp",
        "system": "urn:oid:2.16.840.1.113883.4.4",
        "value": "21-3259825"
      } ],
      "active": true,
      "type": [ {
        "coding": [ {
          "system": "http://terminology.hl7.org/CodeSystem/organization-type",
          "code": "pay",
          "display": "Payer"
        } ]
      } ],
      "name": "Blue Cross Blue Shield of Texas",
      "telecom": [ {
        "system": "phone",
        "value": "(+1) 972-766-6900"
      } ],
      "address": [ {
        "use": "billing",
        "type": "postal",
        "line": [ "P.O. Box 660044" ],
        "city": "Dallas",
        "state": "TX",
        "postalCode": "75266-0044",
        "country": "USA"
      } ]
    },
    "request": {
      "method": "PUT",
      "url": "Organization/29715726-fdaa-4ee8-bfec-7f8115e4d01a"
    }
  }, {
    "fullUrl": "https://madie.cms.gov/Practitioner/7114f35d-1f31-448a-b1da-81bc2248df3b",
    "resource": {
      "resourceType": "Practitioner",
      "id": "7114f35d-1f31-448a-b1da-81bc2248df3b",
      "meta": {
        "profile": [ "http://hl7.org/fhir/us/qicore/StructureDefinition/qicore-practitioner" ]
      },
      "identifier": [ {
        "system": "http://hl7.org/fhir/sid/us-npi",
        "value": "9999999896"
      } ],
      "name": [ {
        "family": "Evil",
        "prefix": [ "Dr" ]
      } ]
    },
    "request": {
      "method": "PUT",
      "url": "Practitioner/7114f35d-1f31-448a-b1da-81bc2248df3b"
    }
  }, {
    "fullUrl": "https://madie.cms.gov/MeasureReport/446c0c85-7189-4c3f-a343-e8ff49199fbe",
    "resource": {
      "resourceType": "MeasureReport",
      "id": "446c0c85-7189-4c3f-a343-e8ff49199fbe",
      "meta": {
        "profile": [ "http://hl7.org/fhir/us/cqfmeasures/StructureDefinition/test-case-cqfm" ]
      },
      "contained": [ {
        "resourceType": "Parameters",
        "id": "f5be2d7d-232e-4ba9-9469-aac5c5e2823d-parameters",
        "parameter": [ {
          "name": "subject",
          "valueString": "cec2b099-7f6d-4260-a2f8-bc0ed0b9c3e5"
        } ]
      } ],
      "extension": [ {
        "url": "http://hl7.org/fhir/StructureDefinition/cqf-inputParameters",
        "valueReference": {
          "reference": "#f5be2d7d-232e-4ba9-9469-aac5c5e2823d-parameters"
        }
      }, {
        "url": "http://hl7.org/fhir/us/cqfmeasures/StructureDefinition/cqfm-testCaseDescription",
        "valueMarkdown": "No discharge status indicated. Testing DENEX logic (intentional fail). \n"
      } ],
      "modifierExtension": [ {
        "url": "http://hl7.org/fhir/us/cqfmeasures/StructureDefinition/cqfm-isTestCase",
        "valueBoolean": true
      } ],
      "status": "complete",
      "type": "individual",
      "measure": "https://madie.cms.gov/Measure/CMS71FHIRSTKAnticoagAFFlutter",
      "period": {
        "start": "2026-01-01",
        "end": "2026-12-31"
      },
      "group": [ {
        "id": "Group_1",
        "population": [ {
          "id": "InitialPopulation_1",
          "code": {
            "coding": [ {
              "system": "http://terminology.hl7.org/CodeSystem/measure-population",
              "code": "initial-population",
              "display": "Initial Population"
            } ]
          },
          "count": 1
        }, {
          "id": "Denominator_1",
          "code": {
            "coding": [ {
              "system": "http://terminology.hl7.org/CodeSystem/measure-population",
              "code": "denominator",
              "display": "Denominator"
            } ]
          },
          "count": 1
        }, {
          "id": "DenominatorExclusion_1",
          "code": {
            "coding": [ {
              "system": "http://terminology.hl7.org/CodeSystem/measure-population",
              "code": "denominator-exclusion",
              "display": "Denominator Exclusion"
            } ]
          },
          "count": 0
        }, {
          "id": "Numerator_1",
          "code": {
            "coding": [ {
              "system": "http://terminology.hl7.org/CodeSystem/measure-population",
              "code": "numerator",
              "display": "Numerator"
            } ]
          },
          "count": 0
        }, {
          "id": "DenominatorException_1",
          "code": {
            "coding": [ {
              "system": "http://terminology.hl7.org/CodeSystem/measure-population",
              "code": "denominator-exception",
              "display": "Denominator Exception"
            } ]
          },
          "count": 0
        } ],
        "measureScore": {
          "value": 0.0
        }
      } ],
      "evaluatedResource": [ {
        "reference": "Patient/cec2b099-7f6d-4260-a2f8-bc0ed0b9c3e5"
      }, {
        "reference": "Encounter/1b9997b0-c72f-48f8-866c-9e191a03370b"
      }, {
        "reference": "Encounter/4f3777a1-85db-4b4d-83fe-1875a62ade88"
      }, {
        "reference": "Claim/141e3ea7-7aa2-4d4f-b893-a82df887c986"
      }, {
        "reference": "Coverage/6d913b43-afcb-4183-b279-2993b04cc2aa"
      }, {
        "reference": "Procedure/34a4b95f-bab9-4933-8db6-3c3c921465e9"
      }, {
        "reference": "Condition/61d8d14a-6c9c-488e-ae53-670b3e4cc828"
      }, {
        "reference": "Organization/29715726-fdaa-4ee8-bfec-7f8115e4d01a"
      }, {
        "reference": "Practitioner/7114f35d-1f31-448a-b1da-81bc2248df3b"
      } ]
    },
    "request": {
      "method": "PUT",
      "url": "MeasureReport/446c0c85-7189-4c3f-a343-e8ff49199fbe"
    }
  } ]
}