{
  "resourceType": "Bundle",
  "id": "633c9d030968f8012250fc77",
  "type": "transaction",
  "entry": [ {
    "fullUrl": "https://madie.cms.gov/Patient/4543f40b-6f71-47e7-8930-0340eede9145",
    "resource": {
      "resourceType": "Patient",
      "id": "4543f40b-6f71-47e7-8930-0340eede9145",
      "meta": {
        "profile": [ "http://hl7.org/fhir/us/qicore/StructureDefinition/qicore-patient" ]
      },
      "text": {
        "status": "generated",
        "div": "<div xmlns=\"http://www.w3.org/1999/xhtml\"><div class=\"hapiHeaderText\">EncEndsAfterMP <b>IPPFAIL </b></div><table class=\"hapiPropertyTable\"><tbody><tr><td>Identifier</td><td>a2be86eca3f69327b6dde627c8efe697</td></tr><tr><td>Date of birth</td><td><span>01 December 1960</span></td></tr></tbody></table></div>"
      },
      "extension": [ {
        "url": "http://hl7.org/fhir/us/core/StructureDefinition/us-core-race",
        "extension": [ {
          "url": "ombCategory",
          "valueCoding": {
            "system": "urn:oid:2.16.840.1.113883.6.238",
            "code": "1002-5",
            "display": "American Indian or Alaska Native",
            "userSelected": true
          }
        }, {
          "url": "text",
          "valueString": "American Indian or Alaska Native"
        } ]
      }, {
        "url": "http://hl7.org/fhir/us/core/StructureDefinition/us-core-ethnicity",
        "extension": [ {
          "url": "ombCategory",
          "valueCoding": {
            "system": "urn:oid:2.16.840.1.113883.6.238",
            "code": "2135-2",
            "display": "Hispanic or Latino",
            "userSelected": true
          }
        }, {
          "url": "text",
          "valueString": "Hispanic or Latino"
        } ]
      } ],
      "identifier": [ {
        "type": {
          "coding": [ {
            "system": "http://terminology.hl7.org/CodeSystem/v2-0203",
            "code": "MR"
          } ]
        },
        "system": "https://bonnie-fhir.healthit.gov/",
        "value": "633c9d030968f8012250fc77"
      } ],
      "active": true,
      "name": [ {
        "use": "usual",
        "family": "IPPFail",
        "given": [ "EncEndsAfterMP" ]
      } ],
      "gender": "male",
      "birthDate": "1961-12-01"
    },
    "request": {
      "method": "PUT",
      "url": "Patient/4543f40b-6f71-47e7-8930-0340eede9145"
    }
  }, {
    "fullUrl": "https://madie.cms.gov/Encounter/c0d430e5-e3ab-4e5a-ab33-c05b19ecc021",
    "resource": {
      "resourceType": "Encounter",
      "id": "c0d430e5-e3ab-4e5a-ab33-c05b19ecc021",
      "meta": {
        "profile": [ "http://hl7.org/fhir/us/qicore/StructureDefinition/qicore-encounter" ]
      },
      "status": "finished",
      "class": {
        "system": "http://terminology.hl7.org/CodeSystem/v3-ActCode",
        "code": "IMP",
        "display": "inpatient encounter"
      },
      "type": [ {
        "coding": [ {
          "system": "http://snomed.info/sct",
          "code": "32485007"
        } ]
      } ],
      "subject": {
        "reference": "Patient/4543f40b-6f71-47e7-8930-0340eede9145"
      },
      "period": {
        "start": "2026-12-01T08:00:00.000Z",
        "end": "2027-01-01T00:01:00.000Z"
      },
      "length": {
        "value": 31,
        "unit": "days"
      },
      "reasonReference": [ {
        "reference": "Condition/47e406f4-f437-42e6-82d4-a6c2de0527b8"
      } ]
    },
    "request": {
      "method": "PUT",
      "url": "Encounter/c0d430e5-e3ab-4e5a-ab33-c05b19ecc021"
    }
  }, {
    "fullUrl": "https://madie.cms.gov/Coverage/f7b6f1c0-96b6-4a89-82fc-ac9803ac75f9",
    "resource": {
      "resourceType": "Coverage",
      "id": "f7b6f1c0-96b6-4a89-82fc-ac9803ac75f9",
      "meta": {
        "profile": [ "http://hl7.org/fhir/us/qicore/StructureDefinition/qicore-coverage" ]
      },
      "status": "active",
      "subscriberId": "523435",
      "beneficiary": {
        "reference": "Patient/4543f40b-6f71-47e7-8930-0340eede9145"
      },
      "relationship": {
        "coding": [ {
          "system": "http://terminology.hl7.org/CodeSystem/subscriber-relationship",
          "code": "self"
        } ]
      },
      "payor": [ {
        "reference": "Organization/9a651011-a655-44e0-a740-af2f6b4fd152"
      } ]
    },
    "request": {
      "method": "PUT",
      "url": "Coverage/f7b6f1c0-96b6-4a89-82fc-ac9803ac75f9"
    }
  }, {
    "fullUrl": "https://madie.cms.gov/Condition/47e406f4-f437-42e6-82d4-a6c2de0527b8",
    "resource": {
      "resourceType": "Condition",
      "id": "47e406f4-f437-42e6-82d4-a6c2de0527b8",
      "meta": {
        "profile": [ "http://hl7.org/fhir/us/qicore/StructureDefinition/qicore-condition-encounter-diagnosis" ]
      },
      "clinicalStatus": {
        "coding": [ {
          "system": "http://terminology.hl7.org/CodeSystem/condition-clinical",
          "code": "active"
        } ]
      },
      "verificationStatus": {
        "coding": [ {
          "system": "http://terminology.hl7.org/CodeSystem/condition-ver-status",
          "code": "confirmed"
        } ]
      },
      "category": [ {
        "coding": [ {
          "system": "http://terminology.hl7.org/CodeSystem/condition-category",
          "code": "encounter-diagnosis",
          "display": "Encounter Diagnosis"
        } ]
      } ],
      "code": {
        "coding": [ {
          "system": "http://snomed.info/sct",
          "version": "2021-09",
          "code": "111297002",
          "display": "Nonparalytic stroke (disorder)",
          "userSelected": true
        } ]
      },
      "subject": {
        "reference": "Patient/4543f40b-6f71-47e7-8930-0340eede9145"
      },
      "recordedDate": "2026-10-13T08:00:00.000Z"
    },
    "request": {
      "method": "PUT",
      "url": "Condition/47e406f4-f437-42e6-82d4-a6c2de0527b8"
    }
  }, {
    "fullUrl": "https://madie.cms.gov/Claim/4d2d696d-f404-468d-a914-291e07015ab0",
    "resource": {
      "resourceType": "Claim",
      "id": "4d2d696d-f404-468d-a914-291e07015ab0",
      "meta": {
        "profile": [ "http://hl7.org/fhir/us/qicore/StructureDefinition/qicore-claim" ]
      },
      "status": "active",
      "type": {
        "coding": [ {
          "system": "http://terminology.hl7.org/CodeSystem/claim-type",
          "code": "institutional"
        } ]
      },
      "use": "claim",
      "patient": {
        "reference": "Patient/4543f40b-6f71-47e7-8930-0340eede9145"
      },
      "created": "2027-01-07",
      "provider": {
        "reference": "Practitioner/4791320f-1db6-4ac7-a521-01ea4761fc7e"
      },
      "priority": {
        "coding": [ {
          "system": "http://terminology.hl7.org/CodeSystem/processpriority",
          "code": "normal"
        } ]
      },
      "diagnosis": [ {
        "sequence": 1,
        "diagnosisCodeableConcept": {
          "coding": [ {
            "system": "http://hl7.org/fhir/sid/icd-10-cm",
            "code": "I63.00"
          } ]
        },
        "type": [ {
          "coding": [ {
            "system": "http://terminology.hl7.org/CodeSystem/ex-diagnosistype",
            "code": "principal"
          } ]
        } ]
      } ],
      "insurance": [ {
        "sequence": 1,
        "focal": true,
        "coverage": {
          "reference": "Coverage/5fa041661c76ba66d9959367"
        }
      } ],
      "item": [ {
        "sequence": 1,
        "diagnosisSequence": [ 1 ],
        "productOrService": {
          "coding": [ {
            "system": "http://terminology.hl7.org/CodeSystem/ex-USCLS",
            "code": "99555"
          } ]
        },
        "encounter": [ {
          "reference": "Encounter/c0d430e5-e3ab-4e5a-ab33-c05b19ecc021"
        } ]
      } ]
    },
    "request": {
      "method": "PUT",
      "url": "Claim/4d2d696d-f404-468d-a914-291e07015ab0"
    }
  }, {
    "fullUrl": "https://madie.cms.gov/Organization/9a651011-a655-44e0-a740-af2f6b4fd152",
    "resource": {
      "resourceType": "Organization",
      "id": "9a651011-a655-44e0-a740-af2f6b4fd152",
      "meta": {
        "profile": [ "http://hl7.org/fhir/us/qicore/StructureDefinition/qicore-organization" ]
      },
      "identifier": [ {
        "use": "temp",
        "system": "urn:oid:2.16.840.1.113883.4.4",
        "value": "21-3259825"
      } ],
      "active": true,
      "type": [ {
        "coding": [ {
          "system": "http://terminology.hl7.org/CodeSystem/organization-type",
          "code": "pay",
          "display": "Payer"
        } ]
      } ],
      "name": "Blue Cross Blue Shield of Texas",
      "telecom": [ {
        "system": "phone",
        "value": "(+1) 972-766-6900"
      } ],
      "address": [ {
        "use": "billing",
        "type": "postal",
        "line": [ "P.O. Box 660044" ],
        "city": "Dallas",
        "state": "TX",
        "postalCode": "75266-0044",
        "country": "USA"
      } ]
    },
    "request": {
      "method": "PUT",
      "url": "Organization/9a651011-a655-44e0-a740-af2f6b4fd152"
    }
  }, {
    "fullUrl": "https://madie.cms.gov/Practitioner/4791320f-1db6-4ac7-a521-01ea4761fc7e",
    "resource": {
      "resourceType": "Practitioner",
      "id": "4791320f-1db6-4ac7-a521-01ea4761fc7e",
      "meta": {
        "profile": [ "http://hl7.org/fhir/us/qicore/StructureDefinition/qicore-practitioner" ]
      },
      "identifier": [ {
        "system": "http://hl7.org/fhir/sid/us-npi",
        "value": "9999999896"
      } ],
      "name": [ {
        "family": "Evil",
        "prefix": [ "Dr" ]
      } ]
    },
    "request": {
      "method": "PUT",
      "url": "Practitioner/4791320f-1db6-4ac7-a521-01ea4761fc7e"
    }
  }, {
    "fullUrl": "https://madie.cms.gov/MeasureReport/3f8113ea-a18d-4cb2-98e2-24df73a4ec03",
    "resource": {
      "resourceType": "MeasureReport",
      "id": "3f8113ea-a18d-4cb2-98e2-24df73a4ec03",
      "meta": {
        "profile": [ "http://hl7.org/fhir/us/cqfmeasures/StructureDefinition/test-case-cqfm" ]
      },
      "contained": [ {
        "resourceType": "Parameters",
        "id": "c1af49d8-900f-44de-b102-4d07880b5fde-parameters",
        "parameter": [ {
          "name": "subject",
          "valueString": "4543f40b-6f71-47e7-8930-0340eede9145"
        } ]
      } ],
      "extension": [ {
        "url": "http://hl7.org/fhir/StructureDefinition/cqf-inputParameters",
        "valueReference": {
          "reference": "#c1af49d8-900f-44de-b102-4d07880b5fde-parameters"
        }
      }, {
        "url": "http://hl7.org/fhir/us/cqfmeasures/StructureDefinition/cqfm-testCaseDescription",
        "valueMarkdown": "Principal diagnosis = ischemic stroke, age GE 18, encounter ends after MP\n"
      } ],
      "modifierExtension": [ {
        "url": "http://hl7.org/fhir/us/cqfmeasures/StructureDefinition/cqfm-isTestCase",
        "valueBoolean": true
      } ],
      "status": "complete",
      "type": "individual",
      "measure": "https://madie.cms.gov/Measure/CMS71FHIRSTKAnticoagAFFlutter",
      "period": {
        "start": "2026-01-01",
        "end": "2026-12-31"
      },
      "group": [ {
        "id": "Group_1",
        "population": [ {
          "id": "InitialPopulation_1",
          "code": {
            "coding": [ {
              "system": "http://terminology.hl7.org/CodeSystem/measure-population",
              "code": "initial-population",
              "display": "Initial Population"
            } ]
          },
          "count": 0
        }, {
          "id": "Denominator_1",
          "code": {
            "coding": [ {
              "system": "http://terminology.hl7.org/CodeSystem/measure-population",
              "code": "denominator",
              "display": "Denominator"
            } ]
          },
          "count": 0
        }, {
          "id": "DenominatorExclusion_1",
          "code": {
            "coding": [ {
              "system": "http://terminology.hl7.org/CodeSystem/measure-population",
              "code": "denominator-exclusion",
              "display": "Denominator Exclusion"
            } ]
          },
          "count": 0
        }, {
          "id": "Numerator_1",
          "code": {
            "coding": [ {
              "system": "http://terminology.hl7.org/CodeSystem/measure-population",
              "code": "numerator",
              "display": "Numerator"
            } ]
          },
          "count": 0
        }, {
          "id": "DenominatorException_1",
          "code": {
            "coding": [ {
              "system": "http://terminology.hl7.org/CodeSystem/measure-population",
              "code": "denominator-exception",
              "display": "Denominator Exception"
            } ]
          },
          "count": 0
        } ],
        "measureScore": {
          "value": 0.0
        }
      } ],
      "evaluatedResource": [ {
        "reference": "Patient/4543f40b-6f71-47e7-8930-0340eede9145"
      }, {
        "reference": "Encounter/c0d430e5-e3ab-4e5a-ab33-c05b19ecc021"
      }, {
        "reference": "Coverage/f7b6f1c0-96b6-4a89-82fc-ac9803ac75f9"
      }, {
        "reference": "Condition/47e406f4-f437-42e6-82d4-a6c2de0527b8"
      }, {
        "reference": "Claim/4d2d696d-f404-468d-a914-291e07015ab0"
      }, {
        "reference": "Organization/9a651011-a655-44e0-a740-af2f6b4fd152"
      }, {
        "reference": "Practitioner/4791320f-1db6-4ac7-a521-01ea4761fc7e"
      } ]
    },
    "request": {
      "method": "PUT",
      "url": "MeasureReport/3f8113ea-a18d-4cb2-98e2-24df73a4ec03"
    }
  } ]
}