{
  "resourceType": "Bundle",
  "id": "633c9d030968f8012250fc7a",
  "type": "transaction",
  "entry": [ {
    "fullUrl": "https://madie.cms.gov/Patient/5dd3cb00-eb9b-42ba-9af5-9cafa1475528",
    "resource": {
      "resourceType": "Patient",
      "id": "5dd3cb00-eb9b-42ba-9af5-9cafa1475528",
      "meta": {
        "profile": [ "http://hl7.org/fhir/us/qicore/StructureDefinition/qicore-patient" ]
      },
      "text": {
        "status": "generated",
        "div": "<div xmlns=\"http://www.w3.org/1999/xhtml\"><div class=\"hapiHeaderText\">AtrialAblStartTM=EncStartTM <b>DENOMFAIL </b></div><table class=\"hapiPropertyTable\"><tbody><tr><td>Identifier</td><td>17e7285219c0bb5f087df79f6dd558b0</td></tr><tr><td>Date of birth</td><td><span>01 December 1960</span></td></tr></tbody></table></div>"
      },
      "extension": [ {
        "url": "http://hl7.org/fhir/us/core/StructureDefinition/us-core-race",
        "extension": [ {
          "url": "ombCategory",
          "valueCoding": {
            "system": "urn:oid:2.16.840.1.113883.6.238",
            "code": "1002-5",
            "display": "American Indian or Alaska Native",
            "userSelected": true
          }
        }, {
          "url": "text",
          "valueString": "American Indian or Alaska Native"
        } ]
      }, {
        "url": "http://hl7.org/fhir/us/core/StructureDefinition/us-core-ethnicity",
        "extension": [ {
          "url": "ombCategory",
          "valueCoding": {
            "system": "urn:oid:2.16.840.1.113883.6.238",
            "code": "2135-2",
            "display": "Hispanic or Latino",
            "userSelected": true
          }
        }, {
          "url": "text",
          "valueString": "Hispanic or Latino"
        } ]
      } ],
      "identifier": [ {
        "type": {
          "coding": [ {
            "system": "http://terminology.hl7.org/CodeSystem/v2-0203",
            "code": "MR"
          } ]
        },
        "system": "https://bonnie-fhir.healthit.gov/",
        "value": "633c9d030968f8012250fc7a"
      } ],
      "active": true,
      "name": [ {
        "use": "usual",
        "family": "DENOMFail",
        "given": [ "AtrialAblStartTM=EncStartTM" ]
      } ],
      "gender": "male",
      "birthDate": "1961-12-01"
    },
    "request": {
      "method": "PUT",
      "url": "Patient/5dd3cb00-eb9b-42ba-9af5-9cafa1475528"
    }
  }, {
    "fullUrl": "https://madie.cms.gov/Claim/d9c6070f-d52a-44d2-ac09-9acd46e88eaa",
    "resource": {
      "resourceType": "Claim",
      "id": "d9c6070f-d52a-44d2-ac09-9acd46e88eaa",
      "meta": {
        "profile": [ "http://hl7.org/fhir/us/qicore/StructureDefinition/qicore-claim" ]
      },
      "status": "active",
      "type": {
        "coding": [ {
          "system": "http://terminology.hl7.org/CodeSystem/claim-type",
          "code": "institutional"
        } ]
      },
      "use": "claim",
      "patient": {
        "reference": "Patient/5dd3cb00-eb9b-42ba-9af5-9cafa1475528"
      },
      "created": "2026-12-01",
      "provider": {
        "reference": "Practitioner/6149135f-0fc1-4bc0-9f90-d202fd9bbc19"
      },
      "priority": {
        "coding": [ {
          "system": "http://terminology.hl7.org/CodeSystem/processpriority",
          "code": "normal"
        } ]
      },
      "diagnosis": [ {
        "sequence": 1,
        "diagnosisCodeableConcept": {
          "coding": [ {
            "system": "http://hl7.org/fhir/sid/icd-10-cm",
            "code": "I63.00"
          } ]
        },
        "type": [ {
          "coding": [ {
            "system": "http://terminology.hl7.org/CodeSystem/ex-diagnosistype",
            "code": "principal"
          } ]
        } ]
      } ],
      "insurance": [ {
        "sequence": 1,
        "focal": true,
        "coverage": {
          "reference": "Coverage/5fa041661c76ba66d9959367"
        }
      } ],
      "item": [ {
        "sequence": 1,
        "diagnosisSequence": [ 1 ],
        "productOrService": {
          "coding": [ {
            "system": "http://terminology.hl7.org/CodeSystem/ex-USCLS",
            "code": "99555"
          } ]
        },
        "encounter": [ {
          "reference": "Encounter/f76ac491-2e3c-46a1-ae82-73fe154c5098"
        } ]
      } ]
    },
    "request": {
      "method": "PUT",
      "url": "Claim/d9c6070f-d52a-44d2-ac09-9acd46e88eaa"
    }
  }, {
    "fullUrl": "https://madie.cms.gov/Encounter/f76ac491-2e3c-46a1-ae82-73fe154c5098",
    "resource": {
      "resourceType": "Encounter",
      "id": "f76ac491-2e3c-46a1-ae82-73fe154c5098",
      "meta": {
        "profile": [ "http://hl7.org/fhir/us/qicore/StructureDefinition/qicore-encounter" ]
      },
      "status": "finished",
      "class": {
        "system": "http://terminology.hl7.org/CodeSystem/v3-ActCode",
        "code": "IMP",
        "display": "inpatient encounter"
      },
      "type": [ {
        "coding": [ {
          "system": "http://snomed.info/sct",
          "code": "32485007"
        } ]
      } ],
      "subject": {
        "reference": "Patient/5dd3cb00-eb9b-42ba-9af5-9cafa1475528"
      },
      "period": {
        "start": "2026-02-08T08:00:00.000Z",
        "end": "2026-02-10T08:15:00.000Z"
      },
      "length": {
        "value": 2,
        "unit": "days"
      },
      "reasonReference": [ {
        "reference": "Condition/88e451be-60b0-467c-b86f-eb3edadce8b0"
      } ]
    },
    "request": {
      "method": "PUT",
      "url": "Encounter/f76ac491-2e3c-46a1-ae82-73fe154c5098"
    }
  }, {
    "fullUrl": "https://madie.cms.gov/Coverage/735c1a26-1d34-420b-80bf-a450301f82e4",
    "resource": {
      "resourceType": "Coverage",
      "id": "735c1a26-1d34-420b-80bf-a450301f82e4",
      "status": "active",
      "subscriberId": "523435",
      "beneficiary": {
        "reference": "Patient/5dd3cb00-eb9b-42ba-9af5-9cafa1475528"
      },
      "relationship": {
        "coding": [ {
          "system": "http://terminology.hl7.org/CodeSystem/subscriber-relationship",
          "code": "self"
        } ]
      },
      "period": {
        "start": "1961-12-01T08:00:00.000Z"
      },
      "payor": [ {
        "reference": "Organization/73d2c6f1-d41c-40d1-b69c-347d90876efb"
      } ]
    },
    "request": {
      "method": "PUT",
      "url": "Coverage/735c1a26-1d34-420b-80bf-a450301f82e4"
    }
  }, {
    "fullUrl": "https://madie.cms.gov/Procedure/28737520-6c98-46be-a3e7-92168445c624",
    "resource": {
      "resourceType": "Procedure",
      "id": "28737520-6c98-46be-a3e7-92168445c624",
      "meta": {
        "profile": [ "http://hl7.org/fhir/us/qicore/StructureDefinition/qicore-procedure" ]
      },
      "extension": [ {
        "url": "http://hl7.org/fhir/us/qicore/StructureDefinition/qicore-recorded",
        "valueDateTime": "2026-11-19T13:35:00.000Z"
      } ],
      "status": "completed",
      "code": {
        "coding": [ {
          "system": "http://www.cms.gov/Medicare/Coding/ICD10",
          "code": "02560ZZ"
        }, {
          "system": "http://snomed.info/sct",
          "code": "175095005"
        } ]
      },
      "subject": {
        "reference": "Patient/5dd3cb00-eb9b-42ba-9af5-9cafa1475528"
      },
      "performedPeriod": {
        "start": "2026-02-08T08:00:00.000Z"
      }
    },
    "request": {
      "method": "PUT",
      "url": "Procedure/28737520-6c98-46be-a3e7-92168445c624"
    }
  }, {
    "fullUrl": "https://madie.cms.gov/Condition/88e451be-60b0-467c-b86f-eb3edadce8b0",
    "resource": {
      "resourceType": "Condition",
      "id": "88e451be-60b0-467c-b86f-eb3edadce8b0",
      "meta": {
        "profile": [ "http://hl7.org/fhir/us/qicore/StructureDefinition/qicore-condition-encounter-diagnosis" ]
      },
      "clinicalStatus": {
        "coding": [ {
          "system": "http://terminology.hl7.org/CodeSystem/condition-clinical",
          "code": "active"
        } ]
      },
      "verificationStatus": {
        "coding": [ {
          "system": "http://terminology.hl7.org/CodeSystem/condition-ver-status",
          "code": "confirmed"
        } ]
      },
      "category": [ {
        "coding": [ {
          "system": "http://terminology.hl7.org/CodeSystem/condition-category",
          "code": "encounter-diagnosis",
          "display": "Encounter Diagnosis"
        } ]
      } ],
      "code": {
        "coding": [ {
          "system": "http://snomed.info/sct",
          "version": "2021-09",
          "code": "111297002",
          "display": "Nonparalytic stroke (disorder)",
          "userSelected": true
        } ]
      },
      "subject": {
        "reference": "Patient/5dd3cb00-eb9b-42ba-9af5-9cafa1475528"
      },
      "recordedDate": "2026-10-13T08:00:00.000Z"
    },
    "request": {
      "method": "PUT",
      "url": "Condition/88e451be-60b0-467c-b86f-eb3edadce8b0"
    }
  }, {
    "fullUrl": "https://madie.cms.gov/Organization/73d2c6f1-d41c-40d1-b69c-347d90876efb",
    "resource": {
      "resourceType": "Organization",
      "id": "73d2c6f1-d41c-40d1-b69c-347d90876efb",
      "meta": {
        "profile": [ "http://hl7.org/fhir/us/qicore/StructureDefinition/qicore-organization" ]
      },
      "identifier": [ {
        "use": "temp",
        "system": "urn:oid:2.16.840.1.113883.4.4",
        "value": "21-3259825"
      } ],
      "active": true,
      "type": [ {
        "coding": [ {
          "system": "http://terminology.hl7.org/CodeSystem/organization-type",
          "code": "pay",
          "display": "Payer"
        } ]
      } ],
      "name": "Blue Cross Blue Shield of Texas",
      "telecom": [ {
        "system": "phone",
        "value": "(+1) 972-766-6900"
      } ],
      "address": [ {
        "use": "billing",
        "type": "postal",
        "line": [ "P.O. Box 660044" ],
        "city": "Dallas",
        "state": "TX",
        "postalCode": "75266-0044",
        "country": "USA"
      } ]
    },
    "request": {
      "method": "PUT",
      "url": "Organization/73d2c6f1-d41c-40d1-b69c-347d90876efb"
    }
  }, {
    "fullUrl": "https://madie.cms.gov/Practitioner/6149135f-0fc1-4bc0-9f90-d202fd9bbc19",
    "resource": {
      "resourceType": "Practitioner",
      "id": "6149135f-0fc1-4bc0-9f90-d202fd9bbc19",
      "meta": {
        "profile": [ "http://hl7.org/fhir/us/qicore/StructureDefinition/qicore-practitioner" ]
      },
      "identifier": [ {
        "system": "http://hl7.org/fhir/sid/us-npi",
        "value": "9999999896"
      } ],
      "name": [ {
        "family": "Evil",
        "prefix": [ "Dr" ]
      } ]
    },
    "request": {
      "method": "PUT",
      "url": "Practitioner/6149135f-0fc1-4bc0-9f90-d202fd9bbc19"
    }
  }, {
    "fullUrl": "https://madie.cms.gov/MeasureReport/7e7ab8fb-2f88-405f-8de7-5cb943bef50a",
    "resource": {
      "resourceType": "MeasureReport",
      "id": "7e7ab8fb-2f88-405f-8de7-5cb943bef50a",
      "meta": {
        "profile": [ "http://hl7.org/fhir/us/cqfmeasures/StructureDefinition/test-case-cqfm" ]
      },
      "contained": [ {
        "resourceType": "Parameters",
        "id": "6e9a5e0d-7b21-4943-a318-7302488a9185-parameters",
        "parameter": [ {
          "name": "subject",
          "valueString": "5dd3cb00-eb9b-42ba-9af5-9cafa1475528"
        } ]
      } ],
      "extension": [ {
        "url": "http://hl7.org/fhir/StructureDefinition/cqf-inputParameters",
        "valueReference": {
          "reference": "#6e9a5e0d-7b21-4943-a318-7302488a9185-parameters"
        }
      }, {
        "url": "http://hl7.org/fhir/us/cqfmeasures/StructureDefinition/cqfm-testCaseDescription",
        "valueMarkdown": "Procedure performed Atrial Ablation starts at same time as OccA start time\n"
      } ],
      "modifierExtension": [ {
        "url": "http://hl7.org/fhir/us/cqfmeasures/StructureDefinition/cqfm-isTestCase",
        "valueBoolean": true
      } ],
      "status": "complete",
      "type": "individual",
      "measure": "https://madie.cms.gov/Measure/CMS71FHIRSTKAnticoagAFFlutter",
      "period": {
        "start": "2026-01-01",
        "end": "2026-12-31"
      },
      "group": [ {
        "id": "Group_1",
        "population": [ {
          "id": "InitialPopulation_1",
          "code": {
            "coding": [ {
              "system": "http://terminology.hl7.org/CodeSystem/measure-population",
              "code": "initial-population",
              "display": "Initial Population"
            } ]
          },
          "count": 1
        }, {
          "id": "Denominator_1",
          "code": {
            "coding": [ {
              "system": "http://terminology.hl7.org/CodeSystem/measure-population",
              "code": "denominator",
              "display": "Denominator"
            } ]
          },
          "count": 0
        }, {
          "id": "DenominatorExclusion_1",
          "code": {
            "coding": [ {
              "system": "http://terminology.hl7.org/CodeSystem/measure-population",
              "code": "denominator-exclusion",
              "display": "Denominator Exclusion"
            } ]
          },
          "count": 0
        }, {
          "id": "Numerator_1",
          "code": {
            "coding": [ {
              "system": "http://terminology.hl7.org/CodeSystem/measure-population",
              "code": "numerator",
              "display": "Numerator"
            } ]
          },
          "count": 0
        }, {
          "id": "DenominatorException_1",
          "code": {
            "coding": [ {
              "system": "http://terminology.hl7.org/CodeSystem/measure-population",
              "code": "denominator-exception",
              "display": "Denominator Exception"
            } ]
          },
          "count": 0
        } ],
        "measureScore": {
          "value": 0.0
        }
      } ],
      "evaluatedResource": [ {
        "reference": "Patient/5dd3cb00-eb9b-42ba-9af5-9cafa1475528"
      }, {
        "reference": "Claim/d9c6070f-d52a-44d2-ac09-9acd46e88eaa"
      }, {
        "reference": "Encounter/f76ac491-2e3c-46a1-ae82-73fe154c5098"
      }, {
        "reference": "Coverage/735c1a26-1d34-420b-80bf-a450301f82e4"
      }, {
        "reference": "Procedure/28737520-6c98-46be-a3e7-92168445c624"
      }, {
        "reference": "Condition/88e451be-60b0-467c-b86f-eb3edadce8b0"
      }, {
        "reference": "Organization/73d2c6f1-d41c-40d1-b69c-347d90876efb"
      }, {
        "reference": "Practitioner/6149135f-0fc1-4bc0-9f90-d202fd9bbc19"
      } ]
    },
    "request": {
      "method": "PUT",
      "url": "MeasureReport/7e7ab8fb-2f88-405f-8de7-5cb943bef50a"
    }
  } ]
}