{
  "resourceType": "Bundle",
  "id": "633c9d030968f8012250fc70",
  "type": "transaction",
  "entry": [ {
    "fullUrl": "https://madie.cms.gov/Patient/0fc5a0c1-02c0-4427-87d8-2e58f4be7b07",
    "resource": {
      "resourceType": "Patient",
      "id": "0fc5a0c1-02c0-4427-87d8-2e58f4be7b07",
      "meta": {
        "profile": [ "http://hl7.org/fhir/us/qicore/StructureDefinition/qicore-patient" ]
      },
      "text": {
        "status": "generated",
        "div": "<div xmlns=\"http://www.w3.org/1999/xhtml\"><div class=\"hapiHeaderText\">Age&lt;18 <b>IPPFAIL </b></div><table class=\"hapiPropertyTable\"><tbody><tr><td>Identifier</td><td>ca0f0d86cef05422cfb8f64b99a26e8f</td></tr><tr><td>Date of birth</td><td><span>09 February 1994</span></td></tr></tbody></table></div>"
      },
      "extension": [ {
        "url": "http://hl7.org/fhir/us/core/StructureDefinition/us-core-race",
        "extension": [ {
          "url": "ombCategory",
          "valueCoding": {
            "system": "urn:oid:2.16.840.1.113883.6.238",
            "code": "1002-5",
            "display": "American Indian or Alaska Native",
            "userSelected": true
          }
        }, {
          "url": "text",
          "valueString": "American Indian or Alaska Native"
        } ]
      }, {
        "url": "http://hl7.org/fhir/us/core/StructureDefinition/us-core-ethnicity",
        "extension": [ {
          "url": "ombCategory",
          "valueCoding": {
            "system": "urn:oid:2.16.840.1.113883.6.238",
            "code": "2135-2",
            "display": "Hispanic or Latino",
            "userSelected": true
          }
        }, {
          "url": "text",
          "valueString": "Hispanic or Latino"
        } ]
      } ],
      "identifier": [ {
        "type": {
          "coding": [ {
            "system": "http://terminology.hl7.org/CodeSystem/v2-0203",
            "code": "MR"
          } ]
        },
        "system": "https://bonnie-fhir.healthit.gov/",
        "value": "633c9d030968f8012250fc70"
      } ],
      "active": true,
      "name": [ {
        "use": "usual",
        "family": "IPPFail",
        "given": [ "Age<18" ]
      } ],
      "gender": "male",
      "birthDate": "2008-02-09"
    },
    "request": {
      "method": "PUT",
      "url": "Patient/0fc5a0c1-02c0-4427-87d8-2e58f4be7b07"
    }
  }, {
    "fullUrl": "https://madie.cms.gov/Encounter/b320b7de-0f1c-42b6-a404-2c8cef1d5e5e",
    "resource": {
      "resourceType": "Encounter",
      "id": "b320b7de-0f1c-42b6-a404-2c8cef1d5e5e",
      "meta": {
        "profile": [ "http://hl7.org/fhir/us/qicore/StructureDefinition/qicore-encounter" ]
      },
      "status": "finished",
      "class": {
        "system": "http://terminology.hl7.org/CodeSystem/v3-ActCode",
        "code": "IMP",
        "display": "inpatient encounter"
      },
      "type": [ {
        "coding": [ {
          "system": "http://snomed.info/sct",
          "code": "32485007"
        } ]
      } ],
      "subject": {
        "reference": "Patient/0fc5a0c1-02c0-4427-87d8-2e58f4be7b07"
      },
      "period": {
        "start": "2026-02-08T08:00:00.000Z",
        "end": "2026-02-10T08:15:00.000Z"
      },
      "length": {
        "value": 2,
        "unit": "days"
      },
      "diagnosis": [ {
        "condition": {
          "reference": "Condition/5f47a034-b616-42c3-b5d8-cec3ed44f937"
        },
        "rank": 1
      } ]
    },
    "request": {
      "method": "PUT",
      "url": "Encounter/b320b7de-0f1c-42b6-a404-2c8cef1d5e5e"
    }
  }, {
    "fullUrl": "https://madie.cms.gov/Claim/b6339611-2e5d-42e5-9989-62963bf25aac",
    "resource": {
      "resourceType": "Claim",
      "id": "b6339611-2e5d-42e5-9989-62963bf25aac",
      "meta": {
        "profile": [ "http://hl7.org/fhir/us/qicore/StructureDefinition/qicore-claim" ]
      },
      "status": "active",
      "type": {
        "coding": [ {
          "system": "http://terminology.hl7.org/CodeSystem/claim-type",
          "code": "institutional"
        } ]
      },
      "use": "claim",
      "patient": {
        "reference": "Patient/0fc5a0c1-02c0-4427-87d8-2e58f4be7b07"
      },
      "created": "2026-12-01",
      "provider": {
        "reference": "Practitioner/ce060f58-cb05-4d21-8b4b-e7457b3bb092"
      },
      "priority": {
        "coding": [ {
          "system": "http://terminology.hl7.org/CodeSystem/processpriority",
          "code": "normal"
        } ]
      },
      "diagnosis": [ {
        "sequence": 1,
        "diagnosisCodeableConcept": {
          "coding": [ {
            "system": "http://hl7.org/fhir/sid/icd-10-cm",
            "code": "I63.00"
          } ]
        },
        "type": [ {
          "coding": [ {
            "system": "http://terminology.hl7.org/CodeSystem/ex-diagnosistype",
            "code": "principal"
          } ]
        } ]
      } ],
      "insurance": [ {
        "sequence": 1,
        "focal": true,
        "coverage": {
          "reference": "Coverage/5fa041661c76ba66d9959367"
        }
      } ],
      "item": [ {
        "sequence": 1,
        "diagnosisSequence": [ 1 ],
        "productOrService": {
          "coding": [ {
            "system": "http://terminology.hl7.org/CodeSystem/ex-USCLS",
            "code": "99555"
          } ]
        },
        "encounter": [ {
          "reference": "Encounter/b320b7de-0f1c-42b6-a404-2c8cef1d5e5e"
        } ]
      } ]
    },
    "request": {
      "method": "PUT",
      "url": "Claim/b6339611-2e5d-42e5-9989-62963bf25aac"
    }
  }, {
    "fullUrl": "https://madie.cms.gov/Coverage/21150ddc-ff54-436c-a8d8-ea9c1e27ce29",
    "resource": {
      "resourceType": "Coverage",
      "id": "21150ddc-ff54-436c-a8d8-ea9c1e27ce29",
      "meta": {
        "profile": [ "http://hl7.org/fhir/us/qicore/StructureDefinition/qicore-coverage" ]
      },
      "status": "active",
      "subscriberId": "523435",
      "beneficiary": {
        "reference": "Patient/0fc5a0c1-02c0-4427-87d8-2e58f4be7b07"
      },
      "relationship": {
        "coding": [ {
          "system": "http://terminology.hl7.org/CodeSystem/subscriber-relationship",
          "code": "self"
        } ]
      },
      "payor": [ {
        "reference": "Organization/b607fd11-61d2-4794-9ba4-dd32a844ce77"
      } ]
    },
    "request": {
      "method": "PUT",
      "url": "Coverage/21150ddc-ff54-436c-a8d8-ea9c1e27ce29"
    }
  }, {
    "fullUrl": "https://madie.cms.gov/Condition/5f47a034-b616-42c3-b5d8-cec3ed44f937",
    "resource": {
      "resourceType": "Condition",
      "id": "5f47a034-b616-42c3-b5d8-cec3ed44f937",
      "meta": {
        "profile": [ "http://hl7.org/fhir/us/qicore/StructureDefinition/qicore-condition-encounter-diagnosis" ]
      },
      "clinicalStatus": {
        "coding": [ {
          "system": "http://terminology.hl7.org/CodeSystem/condition-clinical",
          "code": "active"
        } ]
      },
      "verificationStatus": {
        "coding": [ {
          "system": "http://terminology.hl7.org/CodeSystem/condition-ver-status",
          "code": "confirmed"
        } ]
      },
      "category": [ {
        "coding": [ {
          "system": "http://terminology.hl7.org/CodeSystem/condition-category",
          "code": "encounter-diagnosis",
          "display": "Encounter Diagnosis"
        } ]
      } ],
      "code": {
        "coding": [ {
          "system": "http://snomed.info/sct",
          "version": "2021-09",
          "code": "111297002",
          "display": "Nonparalytic stroke (disorder)",
          "userSelected": true
        } ]
      },
      "subject": {
        "reference": "Patient/0fc5a0c1-02c0-4427-87d8-2e58f4be7b07"
      },
      "recordedDate": "2026-10-13T08:00:00.000Z"
    },
    "request": {
      "method": "PUT",
      "url": "Condition/5f47a034-b616-42c3-b5d8-cec3ed44f937"
    }
  }, {
    "fullUrl": "https://madie.cms.gov/Organization/b607fd11-61d2-4794-9ba4-dd32a844ce77",
    "resource": {
      "resourceType": "Organization",
      "id": "b607fd11-61d2-4794-9ba4-dd32a844ce77",
      "meta": {
        "profile": [ "http://hl7.org/fhir/us/qicore/StructureDefinition/qicore-organization" ]
      },
      "identifier": [ {
        "use": "temp",
        "system": "urn:oid:2.16.840.1.113883.4.4",
        "value": "21-3259825"
      } ],
      "active": true,
      "type": [ {
        "coding": [ {
          "system": "http://terminology.hl7.org/CodeSystem/organization-type",
          "code": "pay",
          "display": "Payer"
        } ]
      } ],
      "name": "Blue Cross Blue Shield of Texas",
      "telecom": [ {
        "system": "phone",
        "value": "(+1) 972-766-6900"
      } ],
      "address": [ {
        "use": "billing",
        "type": "postal",
        "line": [ "P.O. Box 660044" ],
        "city": "Dallas",
        "state": "TX",
        "postalCode": "75266-0044",
        "country": "USA"
      } ]
    },
    "request": {
      "method": "PUT",
      "url": "Organization/b607fd11-61d2-4794-9ba4-dd32a844ce77"
    }
  }, {
    "fullUrl": "https://madie.cms.gov/Practitioner/ce060f58-cb05-4d21-8b4b-e7457b3bb092",
    "resource": {
      "resourceType": "Practitioner",
      "id": "ce060f58-cb05-4d21-8b4b-e7457b3bb092",
      "meta": {
        "profile": [ "http://hl7.org/fhir/us/qicore/StructureDefinition/qicore-practitioner" ]
      },
      "identifier": [ {
        "system": "http://hl7.org/fhir/sid/us-npi",
        "value": "9999999896"
      } ],
      "name": [ {
        "family": "Evil",
        "prefix": [ "Dr" ]
      } ]
    },
    "request": {
      "method": "PUT",
      "url": "Practitioner/ce060f58-cb05-4d21-8b4b-e7457b3bb092"
    }
  }, {
    "fullUrl": "https://madie.cms.gov/MeasureReport/c3adbee2-c7a4-4794-8eec-0af62705b489",
    "resource": {
      "resourceType": "MeasureReport",
      "id": "c3adbee2-c7a4-4794-8eec-0af62705b489",
      "meta": {
        "profile": [ "http://hl7.org/fhir/us/cqfmeasures/StructureDefinition/test-case-cqfm" ]
      },
      "contained": [ {
        "resourceType": "Parameters",
        "id": "884042ba-8b9d-4460-acf6-a47957fc4a87-parameters",
        "parameter": [ {
          "name": "subject",
          "valueString": "0fc5a0c1-02c0-4427-87d8-2e58f4be7b07"
        } ]
      } ],
      "extension": [ {
        "url": "http://hl7.org/fhir/StructureDefinition/cqf-inputParameters",
        "valueReference": {
          "reference": "#884042ba-8b9d-4460-acf6-a47957fc4a87-parameters"
        }
      }, {
        "url": "http://hl7.org/fhir/us/cqfmeasures/StructureDefinition/cqfm-testCaseDescription",
        "valueMarkdown": "Principal diagnosis = ischemic stroke, patient turns 18 one day after OccurA starts\n"
      } ],
      "modifierExtension": [ {
        "url": "http://hl7.org/fhir/us/cqfmeasures/StructureDefinition/cqfm-isTestCase",
        "valueBoolean": true
      } ],
      "status": "complete",
      "type": "individual",
      "measure": "https://madie.cms.gov/Measure/CMS71FHIRSTKAnticoagAFFlutter",
      "period": {
        "start": "2026-01-01",
        "end": "2026-12-31"
      },
      "group": [ {
        "id": "Group_1",
        "population": [ {
          "id": "InitialPopulation_1",
          "code": {
            "coding": [ {
              "system": "http://terminology.hl7.org/CodeSystem/measure-population",
              "code": "initial-population",
              "display": "Initial Population"
            } ]
          },
          "count": 0
        }, {
          "id": "Denominator_1",
          "code": {
            "coding": [ {
              "system": "http://terminology.hl7.org/CodeSystem/measure-population",
              "code": "denominator",
              "display": "Denominator"
            } ]
          },
          "count": 0
        }, {
          "id": "DenominatorExclusion_1",
          "code": {
            "coding": [ {
              "system": "http://terminology.hl7.org/CodeSystem/measure-population",
              "code": "denominator-exclusion",
              "display": "Denominator Exclusion"
            } ]
          },
          "count": 0
        }, {
          "id": "Numerator_1",
          "code": {
            "coding": [ {
              "system": "http://terminology.hl7.org/CodeSystem/measure-population",
              "code": "numerator",
              "display": "Numerator"
            } ]
          },
          "count": 0
        }, {
          "id": "DenominatorException_1",
          "code": {
            "coding": [ {
              "system": "http://terminology.hl7.org/CodeSystem/measure-population",
              "code": "denominator-exception",
              "display": "Denominator Exception"
            } ]
          },
          "count": 0
        } ],
        "measureScore": {
          "value": 0.0
        }
      } ],
      "evaluatedResource": [ {
        "reference": "Patient/0fc5a0c1-02c0-4427-87d8-2e58f4be7b07"
      }, {
        "reference": "Encounter/b320b7de-0f1c-42b6-a404-2c8cef1d5e5e"
      }, {
        "reference": "Claim/b6339611-2e5d-42e5-9989-62963bf25aac"
      }, {
        "reference": "Coverage/21150ddc-ff54-436c-a8d8-ea9c1e27ce29"
      }, {
        "reference": "Condition/5f47a034-b616-42c3-b5d8-cec3ed44f937"
      }, {
        "reference": "Organization/b607fd11-61d2-4794-9ba4-dd32a844ce77"
      }, {
        "reference": "Practitioner/ce060f58-cb05-4d21-8b4b-e7457b3bb092"
      } ]
    },
    "request": {
      "method": "PUT",
      "url": "MeasureReport/c3adbee2-c7a4-4794-8eec-0af62705b489"
    }
  } ]
}