{
  "resourceType": "Bundle",
  "id": "633c9d030968f8012250fc76",
  "type": "transaction",
  "entry": [ {
    "fullUrl": "https://madie.cms.gov/Patient/24ffee3e-9b5b-491e-8490-006d306e5f8a",
    "resource": {
      "resourceType": "Patient",
      "id": "24ffee3e-9b5b-491e-8490-006d306e5f8a",
      "meta": {
        "profile": [ "http://hl7.org/fhir/us/qicore/StructureDefinition/qicore-patient" ]
      },
      "text": {
        "status": "generated",
        "div": "<div xmlns=\"http://www.w3.org/1999/xhtml\"><div class=\"hapiHeaderText\">EncEndsB4MP <b>IPPFAIL </b></div><table class=\"hapiPropertyTable\"><tbody><tr><td>Identifier</td><td>c151187f98af848f2ba9485fb72e98d1</td></tr><tr><td>Date of birth</td><td><span>01 December 1960</span></td></tr></tbody></table></div>"
      },
      "extension": [ {
        "url": "http://hl7.org/fhir/us/core/StructureDefinition/us-core-race",
        "extension": [ {
          "url": "ombCategory",
          "valueCoding": {
            "system": "urn:oid:2.16.840.1.113883.6.238",
            "code": "1002-5",
            "display": "American Indian or Alaska Native",
            "userSelected": true
          }
        }, {
          "url": "text",
          "valueString": "American Indian or Alaska Native"
        } ]
      }, {
        "url": "http://hl7.org/fhir/us/core/StructureDefinition/us-core-ethnicity",
        "extension": [ {
          "url": "ombCategory",
          "valueCoding": {
            "system": "urn:oid:2.16.840.1.113883.6.238",
            "code": "2135-2",
            "display": "Hispanic or Latino",
            "userSelected": true
          }
        }, {
          "url": "text",
          "valueString": "Hispanic or Latino"
        } ]
      } ],
      "identifier": [ {
        "type": {
          "coding": [ {
            "system": "http://terminology.hl7.org/CodeSystem/v2-0203",
            "code": "MR"
          } ]
        },
        "system": "https://bonnie-fhir.healthit.gov/",
        "value": "633c9d030968f8012250fc76"
      } ],
      "active": true,
      "name": [ {
        "use": "usual",
        "family": "IPPFail",
        "given": [ "EncEndsB4MP" ]
      } ],
      "gender": "male",
      "birthDate": "1961-12-01"
    },
    "request": {
      "method": "PUT",
      "url": "Patient/24ffee3e-9b5b-491e-8490-006d306e5f8a"
    }
  }, {
    "fullUrl": "https://madie.cms.gov/Encounter/3fd64aa4-7560-456e-9e09-dc1f2ea88d49",
    "resource": {
      "resourceType": "Encounter",
      "id": "3fd64aa4-7560-456e-9e09-dc1f2ea88d49",
      "meta": {
        "profile": [ "http://hl7.org/fhir/us/qicore/StructureDefinition/qicore-encounter" ]
      },
      "status": "finished",
      "class": {
        "system": "http://terminology.hl7.org/CodeSystem/v3-ActCode",
        "code": "IMP",
        "display": "inpatient encounter"
      },
      "type": [ {
        "coding": [ {
          "system": "http://snomed.info/sct",
          "code": "32485007"
        } ]
      } ],
      "subject": {
        "reference": "Patient/24ffee3e-9b5b-491e-8490-006d306e5f8a"
      },
      "period": {
        "start": "2012-12-01T08:00:00.000Z",
        "end": "2012-12-31T23:59:00.000Z"
      },
      "length": {
        "value": 30,
        "unit": "days"
      },
      "reasonReference": [ {
        "reference": "Condition/7eeec03c-6c53-488b-ad01-dd7b2450c61b"
      } ]
    },
    "request": {
      "method": "PUT",
      "url": "Encounter/3fd64aa4-7560-456e-9e09-dc1f2ea88d49"
    }
  }, {
    "fullUrl": "https://madie.cms.gov/Coverage/04f2c75f-f88f-4950-8137-a90643908096",
    "resource": {
      "resourceType": "Coverage",
      "id": "04f2c75f-f88f-4950-8137-a90643908096",
      "meta": {
        "profile": [ "http://hl7.org/fhir/us/qicore/StructureDefinition/qicore-coverage" ]
      },
      "status": "active",
      "subscriberId": "523435",
      "beneficiary": {
        "reference": "Patient/24ffee3e-9b5b-491e-8490-006d306e5f8a"
      },
      "relationship": {
        "coding": [ {
          "system": "http://terminology.hl7.org/CodeSystem/subscriber-relationship",
          "code": "self"
        } ]
      },
      "payor": [ {
        "reference": "Organization/ec8190d3-58f4-442e-8744-2c402e514b41"
      } ]
    },
    "request": {
      "method": "PUT",
      "url": "Coverage/04f2c75f-f88f-4950-8137-a90643908096"
    }
  }, {
    "fullUrl": "https://madie.cms.gov/Condition/7eeec03c-6c53-488b-ad01-dd7b2450c61b",
    "resource": {
      "resourceType": "Condition",
      "id": "7eeec03c-6c53-488b-ad01-dd7b2450c61b",
      "meta": {
        "profile": [ "http://hl7.org/fhir/us/qicore/StructureDefinition/qicore-condition-encounter-diagnosis" ]
      },
      "clinicalStatus": {
        "coding": [ {
          "system": "http://terminology.hl7.org/CodeSystem/condition-clinical",
          "code": "active"
        } ]
      },
      "verificationStatus": {
        "coding": [ {
          "system": "http://terminology.hl7.org/CodeSystem/condition-ver-status",
          "code": "confirmed"
        } ]
      },
      "category": [ {
        "coding": [ {
          "system": "http://terminology.hl7.org/CodeSystem/condition-category",
          "code": "encounter-diagnosis",
          "display": "Encounter Diagnosis"
        } ]
      } ],
      "code": {
        "coding": [ {
          "system": "http://snomed.info/sct",
          "version": "2021-09",
          "code": "111297002",
          "display": "Nonparalytic stroke (disorder)",
          "userSelected": true
        } ]
      },
      "subject": {
        "reference": "Patient/24ffee3e-9b5b-491e-8490-006d306e5f8a"
      },
      "recordedDate": "2026-10-13T08:00:00.000Z"
    },
    "request": {
      "method": "PUT",
      "url": "Condition/7eeec03c-6c53-488b-ad01-dd7b2450c61b"
    }
  }, {
    "fullUrl": "https://madie.cms.gov/Claim/a26c3699-3491-4606-a091-8b56c2c5d85f",
    "resource": {
      "resourceType": "Claim",
      "id": "a26c3699-3491-4606-a091-8b56c2c5d85f",
      "meta": {
        "profile": [ "http://hl7.org/fhir/us/qicore/StructureDefinition/qicore-claim" ]
      },
      "status": "active",
      "type": {
        "coding": [ {
          "system": "http://terminology.hl7.org/CodeSystem/claim-type",
          "code": "institutional"
        } ]
      },
      "use": "claim",
      "patient": {
        "reference": "Patient/24ffee3e-9b5b-491e-8490-006d306e5f8a"
      },
      "created": "2026-12-01",
      "provider": {
        "reference": "Practitioner/baf59a85-df06-4d70-8b45-cf7dc9e2bdc1"
      },
      "priority": {
        "coding": [ {
          "system": "http://terminology.hl7.org/CodeSystem/processpriority",
          "code": "normal"
        } ]
      },
      "diagnosis": [ {
        "sequence": 1,
        "diagnosisCodeableConcept": {
          "coding": [ {
            "system": "http://hl7.org/fhir/sid/icd-10-cm",
            "code": "I63.00"
          } ]
        },
        "type": [ {
          "coding": [ {
            "system": "http://terminology.hl7.org/CodeSystem/ex-diagnosistype",
            "code": "principal"
          } ]
        } ]
      } ],
      "insurance": [ {
        "sequence": 1,
        "focal": true,
        "coverage": {
          "reference": "Coverage/5fa041661c76ba66d9959367"
        }
      } ],
      "item": [ {
        "sequence": 1,
        "diagnosisSequence": [ 1 ],
        "productOrService": {
          "coding": [ {
            "system": "http://terminology.hl7.org/CodeSystem/ex-USCLS",
            "code": "99555"
          } ]
        },
        "encounter": [ {
          "reference": "Encounter/3fd64aa4-7560-456e-9e09-dc1f2ea88d49"
        } ]
      } ]
    },
    "request": {
      "method": "PUT",
      "url": "Claim/a26c3699-3491-4606-a091-8b56c2c5d85f"
    }
  }, {
    "fullUrl": "https://madie.cms.gov/Organization/ec8190d3-58f4-442e-8744-2c402e514b41",
    "resource": {
      "resourceType": "Organization",
      "id": "ec8190d3-58f4-442e-8744-2c402e514b41",
      "meta": {
        "profile": [ "http://hl7.org/fhir/us/qicore/StructureDefinition/qicore-organization" ]
      },
      "identifier": [ {
        "use": "temp",
        "system": "urn:oid:2.16.840.1.113883.4.4",
        "value": "21-3259825"
      } ],
      "active": true,
      "type": [ {
        "coding": [ {
          "system": "http://terminology.hl7.org/CodeSystem/organization-type",
          "code": "pay",
          "display": "Payer"
        } ]
      } ],
      "name": "Blue Cross Blue Shield of Texas",
      "telecom": [ {
        "system": "phone",
        "value": "(+1) 972-766-6900"
      } ],
      "address": [ {
        "use": "billing",
        "type": "postal",
        "line": [ "P.O. Box 660044" ],
        "city": "Dallas",
        "state": "TX",
        "postalCode": "75266-0044",
        "country": "USA"
      } ]
    },
    "request": {
      "method": "PUT",
      "url": "Organization/ec8190d3-58f4-442e-8744-2c402e514b41"
    }
  }, {
    "fullUrl": "https://madie.cms.gov/Practitioner/baf59a85-df06-4d70-8b45-cf7dc9e2bdc1",
    "resource": {
      "resourceType": "Practitioner",
      "id": "baf59a85-df06-4d70-8b45-cf7dc9e2bdc1",
      "meta": {
        "profile": [ "http://hl7.org/fhir/us/qicore/StructureDefinition/qicore-practitioner" ]
      },
      "identifier": [ {
        "system": "http://hl7.org/fhir/sid/us-npi",
        "value": "9999999896"
      } ],
      "name": [ {
        "family": "Evil",
        "prefix": [ "Dr" ]
      } ]
    },
    "request": {
      "method": "PUT",
      "url": "Practitioner/baf59a85-df06-4d70-8b45-cf7dc9e2bdc1"
    }
  }, {
    "fullUrl": "https://madie.cms.gov/MeasureReport/817a3a79-7707-49e3-9909-619a0de0ff79",
    "resource": {
      "resourceType": "MeasureReport",
      "id": "817a3a79-7707-49e3-9909-619a0de0ff79",
      "meta": {
        "profile": [ "http://hl7.org/fhir/us/cqfmeasures/StructureDefinition/test-case-cqfm" ]
      },
      "contained": [ {
        "resourceType": "Parameters",
        "id": "8183bedc-3677-4dc4-85a7-2fc01e660018-parameters",
        "parameter": [ {
          "name": "subject",
          "valueString": "24ffee3e-9b5b-491e-8490-006d306e5f8a"
        } ]
      } ],
      "extension": [ {
        "url": "http://hl7.org/fhir/StructureDefinition/cqf-inputParameters",
        "valueReference": {
          "reference": "#8183bedc-3677-4dc4-85a7-2fc01e660018-parameters"
        }
      }, {
        "url": "http://hl7.org/fhir/us/cqfmeasures/StructureDefinition/cqfm-testCaseDescription",
        "valueMarkdown": "Principal diagnosis = ischemic stroke, age GE 18, encounter ends before MP\n"
      } ],
      "modifierExtension": [ {
        "url": "http://hl7.org/fhir/us/cqfmeasures/StructureDefinition/cqfm-isTestCase",
        "valueBoolean": true
      } ],
      "status": "complete",
      "type": "individual",
      "measure": "https://madie.cms.gov/Measure/CMS71FHIRSTKAnticoagAFFlutter",
      "period": {
        "start": "2026-01-01",
        "end": "2026-12-31"
      },
      "group": [ {
        "id": "Group_1",
        "population": [ {
          "id": "InitialPopulation_1",
          "code": {
            "coding": [ {
              "system": "http://terminology.hl7.org/CodeSystem/measure-population",
              "code": "initial-population",
              "display": "Initial Population"
            } ]
          },
          "count": 0
        }, {
          "id": "Denominator_1",
          "code": {
            "coding": [ {
              "system": "http://terminology.hl7.org/CodeSystem/measure-population",
              "code": "denominator",
              "display": "Denominator"
            } ]
          },
          "count": 0
        }, {
          "id": "DenominatorExclusion_1",
          "code": {
            "coding": [ {
              "system": "http://terminology.hl7.org/CodeSystem/measure-population",
              "code": "denominator-exclusion",
              "display": "Denominator Exclusion"
            } ]
          },
          "count": 0
        }, {
          "id": "Numerator_1",
          "code": {
            "coding": [ {
              "system": "http://terminology.hl7.org/CodeSystem/measure-population",
              "code": "numerator",
              "display": "Numerator"
            } ]
          },
          "count": 0
        }, {
          "id": "DenominatorException_1",
          "code": {
            "coding": [ {
              "system": "http://terminology.hl7.org/CodeSystem/measure-population",
              "code": "denominator-exception",
              "display": "Denominator Exception"
            } ]
          },
          "count": 0
        } ],
        "measureScore": {
          "value": 0.0
        }
      } ],
      "evaluatedResource": [ {
        "reference": "Patient/24ffee3e-9b5b-491e-8490-006d306e5f8a"
      }, {
        "reference": "Encounter/3fd64aa4-7560-456e-9e09-dc1f2ea88d49"
      }, {
        "reference": "Coverage/04f2c75f-f88f-4950-8137-a90643908096"
      }, {
        "reference": "Condition/7eeec03c-6c53-488b-ad01-dd7b2450c61b"
      }, {
        "reference": "Claim/a26c3699-3491-4606-a091-8b56c2c5d85f"
      }, {
        "reference": "Organization/ec8190d3-58f4-442e-8744-2c402e514b41"
      }, {
        "reference": "Practitioner/baf59a85-df06-4d70-8b45-cf7dc9e2bdc1"
      } ]
    },
    "request": {
      "method": "PUT",
      "url": "MeasureReport/817a3a79-7707-49e3-9909-619a0de0ff79"
    }
  } ]
}