{
  "resourceType": "Bundle",
  "id": "633c9d030968f8012250fc93",
  "type": "transaction",
  "entry": [ {
    "fullUrl": "https://madie.cms.gov/Patient/81386d2f-e6d7-4433-b477-314e658f8cfe",
    "resource": {
      "resourceType": "Patient",
      "id": "81386d2f-e6d7-4433-b477-314e658f8cfe",
      "meta": {
        "profile": [ "http://hl7.org/fhir/us/qicore/StructureDefinition/qicore-patient" ]
      },
      "text": {
        "status": "generated",
        "div": "<div xmlns=\"http://www.w3.org/1999/xhtml\"><div class=\"hapiHeaderText\">MedDCAnticoaStartTmEQEncAdmTm <b>NUMERPASS </b></div><table class=\"hapiPropertyTable\"><tbody><tr><td>Identifier</td><td>31fcea6cd6f0c1c8b9c40622729fede7</td></tr><tr><td>Date of birth</td><td><span>23 May 1954</span></td></tr></tbody></table></div>"
      },
      "extension": [ {
        "url": "http://hl7.org/fhir/us/core/StructureDefinition/us-core-race",
        "extension": [ {
          "url": "ombCategory",
          "valueCoding": {
            "system": "urn:oid:2.16.840.1.113883.6.238",
            "code": "1002-5",
            "display": "American Indian or Alaska Native",
            "userSelected": true
          }
        }, {
          "url": "text",
          "valueString": "American Indian or Alaska Native"
        } ]
      }, {
        "url": "http://hl7.org/fhir/us/core/StructureDefinition/us-core-ethnicity",
        "extension": [ {
          "url": "ombCategory",
          "valueCoding": {
            "system": "urn:oid:2.16.840.1.113883.6.238",
            "code": "2135-2",
            "display": "Hispanic or Latino",
            "userSelected": true
          }
        }, {
          "url": "text",
          "valueString": "Hispanic or Latino"
        } ]
      } ],
      "identifier": [ {
        "type": {
          "coding": [ {
            "system": "http://terminology.hl7.org/CodeSystem/v2-0203",
            "code": "MR"
          } ]
        },
        "system": "https://bonnie-fhir.healthit.gov/",
        "value": "633c9d030968f8012250fc93"
      } ],
      "active": true,
      "name": [ {
        "use": "usual",
        "family": "NUMERPass",
        "given": [ "MedDCAnticoaStartTmEQEncAdmTm" ]
      } ],
      "gender": "female",
      "birthDate": "1955-05-23"
    },
    "request": {
      "method": "PUT",
      "url": "Patient/81386d2f-e6d7-4433-b477-314e658f8cfe"
    }
  }, {
    "fullUrl": "https://madie.cms.gov/Condition/176ae560-d07d-492d-8951-07a6a9d4f42d",
    "resource": {
      "resourceType": "Condition",
      "id": "176ae560-d07d-492d-8951-07a6a9d4f42d",
      "meta": {
        "profile": [ "http://hl7.org/fhir/us/qicore/StructureDefinition/qicore-condition-problems-health-concerns" ]
      },
      "clinicalStatus": {
        "coding": [ {
          "system": "http://terminology.hl7.org/CodeSystem/condition-clinical",
          "code": "inactive"
        } ]
      },
      "verificationStatus": {
        "coding": [ {
          "system": "http://terminology.hl7.org/CodeSystem/condition-ver-status",
          "code": "confirmed"
        } ]
      },
      "category": [ {
        "coding": [ {
          "system": "http://terminology.hl7.org/CodeSystem/condition-category",
          "code": "problem-list-item"
        } ]
      } ],
      "code": {
        "coding": [ {
          "system": "http://snomed.info/sct",
          "code": "195080001"
        }, {
          "system": "http://hl7.org/fhir/sid/icd-9-cm",
          "code": "427.31"
        }, {
          "system": "http://hl7.org/fhir/sid/icd-10-cm",
          "code": "I48.0"
        } ]
      },
      "subject": {
        "reference": "Patient/81386d2f-e6d7-4433-b477-314e658f8cfe"
      },
      "onsetDateTime": "2026-11-20T06:00:00.000Z",
      "abatementDateTime": "2026-11-20T07:15:00.000Z"
    },
    "request": {
      "method": "PUT",
      "url": "Condition/176ae560-d07d-492d-8951-07a6a9d4f42d"
    }
  }, {
    "fullUrl": "https://madie.cms.gov/Encounter/d261033f-d651-4812-9501-c3b56c68dbf0",
    "resource": {
      "resourceType": "Encounter",
      "id": "d261033f-d651-4812-9501-c3b56c68dbf0",
      "meta": {
        "profile": [ "http://hl7.org/fhir/us/qicore/StructureDefinition/qicore-encounter" ]
      },
      "status": "finished",
      "class": {
        "system": "http://terminology.hl7.org/CodeSystem/v3-ActCode",
        "code": "IMP",
        "display": "inpatient encounter"
      },
      "type": [ {
        "coding": [ {
          "system": "http://snomed.info/sct",
          "code": "32485007"
        } ]
      } ],
      "subject": {
        "reference": "Patient/81386d2f-e6d7-4433-b477-314e658f8cfe"
      },
      "period": {
        "start": "2026-11-20T08:00:00.000Z",
        "end": "2026-11-24T08:15:00.000Z"
      },
      "length": {
        "value": 4,
        "unit": "days"
      },
      "reasonReference": [ {
        "reference": "Condition/176ae560-d07d-492d-8951-07a6a9d4f42d"
      } ]
    },
    "request": {
      "method": "PUT",
      "url": "Encounter/d261033f-d651-4812-9501-c3b56c68dbf0"
    }
  }, {
    "fullUrl": "https://madie.cms.gov/Claim/e130df88-05d1-4df5-bd8d-6e77f55c3f56",
    "resource": {
      "resourceType": "Claim",
      "id": "e130df88-05d1-4df5-bd8d-6e77f55c3f56",
      "meta": {
        "profile": [ "http://hl7.org/fhir/us/qicore/StructureDefinition/qicore-claim" ]
      },
      "status": "active",
      "type": {
        "coding": [ {
          "system": "http://terminology.hl7.org/CodeSystem/claim-type",
          "code": "institutional"
        } ]
      },
      "use": "claim",
      "patient": {
        "reference": "Patient/81386d2f-e6d7-4433-b477-314e658f8cfe"
      },
      "created": "2026-12-01",
      "provider": {
        "reference": "Practitioner/511c12e2-4b66-4437-b8d2-57f29e6eda29"
      },
      "priority": {
        "coding": [ {
          "system": "http://terminology.hl7.org/CodeSystem/processpriority",
          "code": "normal"
        } ]
      },
      "diagnosis": [ {
        "sequence": 1,
        "diagnosisCodeableConcept": {
          "coding": [ {
            "system": "http://hl7.org/fhir/sid/icd-10-cm",
            "code": "I63.00"
          } ]
        },
        "type": [ {
          "coding": [ {
            "system": "http://terminology.hl7.org/CodeSystem/ex-diagnosistype",
            "code": "principal"
          } ]
        } ]
      } ],
      "insurance": [ {
        "sequence": 1,
        "focal": true,
        "coverage": {
          "reference": "Coverage/5fa041661c76ba66d9959367"
        }
      } ],
      "item": [ {
        "sequence": 1,
        "diagnosisSequence": [ 1 ],
        "productOrService": {
          "coding": [ {
            "system": "http://terminology.hl7.org/CodeSystem/ex-USCLS",
            "code": "99555"
          } ]
        },
        "encounter": [ {
          "reference": "Encounter/d261033f-d651-4812-9501-c3b56c68dbf0"
        } ]
      } ]
    },
    "request": {
      "method": "PUT",
      "url": "Claim/e130df88-05d1-4df5-bd8d-6e77f55c3f56"
    }
  }, {
    "fullUrl": "https://madie.cms.gov/MedicationRequest/5463bd55-75c4-4d3f-a4ed-07f33915ce09",
    "resource": {
      "resourceType": "MedicationRequest",
      "id": "5463bd55-75c4-4d3f-a4ed-07f33915ce09",
      "meta": {
        "profile": [ "http://hl7.org/fhir/us/qicore/StructureDefinition/qicore-medicationrequest" ]
      },
      "status": "active",
      "intent": "order",
      "category": [ {
        "coding": [ {
          "system": "http://terminology.hl7.org/CodeSystem/medicationrequest-category",
          "code": "community",
          "display": "Community",
          "userSelected": true
        } ]
      } ],
      "medicationCodeableConcept": {
        "coding": [ {
          "system": "http://www.nlm.nih.gov/research/umls/rxnorm",
          "code": "308351"
        } ]
      },
      "subject": {
        "reference": "Patient/81386d2f-e6d7-4433-b477-314e658f8cfe"
      },
      "authoredOn": "2026-11-20T08:00:00.000Z",
      "requester": {
        "reference": "Practitioner/example"
      }
    },
    "request": {
      "method": "PUT",
      "url": "MedicationRequest/5463bd55-75c4-4d3f-a4ed-07f33915ce09"
    }
  }, {
    "fullUrl": "https://madie.cms.gov/Coverage/d3bb9c2b-a950-40a8-abeb-32e55149c8aa",
    "resource": {
      "resourceType": "Coverage",
      "id": "d3bb9c2b-a950-40a8-abeb-32e55149c8aa",
      "meta": {
        "profile": [ "http://hl7.org/fhir/us/qicore/StructureDefinition/qicore-coverage" ]
      },
      "status": "active",
      "subscriberId": "523435",
      "beneficiary": {
        "reference": "Patient/81386d2f-e6d7-4433-b477-314e658f8cfe"
      },
      "relationship": {
        "coding": [ {
          "system": "http://terminology.hl7.org/CodeSystem/subscriber-relationship",
          "code": "self"
        } ]
      },
      "payor": [ {
        "reference": "Organization/a9737b18-db72-4fc6-86ba-68d1fb87f05f"
      } ]
    },
    "request": {
      "method": "PUT",
      "url": "Coverage/d3bb9c2b-a950-40a8-abeb-32e55149c8aa"
    }
  }, {
    "fullUrl": "https://madie.cms.gov/Condition/4a6f24ed-0183-4a8f-8158-900f936e647d",
    "resource": {
      "resourceType": "Condition",
      "id": "4a6f24ed-0183-4a8f-8158-900f936e647d",
      "meta": {
        "profile": [ "http://hl7.org/fhir/us/qicore/StructureDefinition/qicore-condition-encounter-diagnosis" ]
      },
      "clinicalStatus": {
        "coding": [ {
          "system": "http://terminology.hl7.org/CodeSystem/condition-clinical",
          "code": "active"
        } ]
      },
      "verificationStatus": {
        "coding": [ {
          "system": "http://terminology.hl7.org/CodeSystem/condition-ver-status",
          "code": "confirmed"
        } ]
      },
      "category": [ {
        "coding": [ {
          "system": "http://terminology.hl7.org/CodeSystem/condition-category",
          "code": "encounter-diagnosis",
          "display": "Encounter Diagnosis"
        } ]
      } ],
      "code": {
        "coding": [ {
          "system": "http://snomed.info/sct",
          "version": "2021-09",
          "code": "111297002",
          "display": "Nonparalytic stroke (disorder)",
          "userSelected": true
        } ]
      },
      "subject": {
        "reference": "Patient/81386d2f-e6d7-4433-b477-314e658f8cfe"
      },
      "recordedDate": "2026-10-13T08:00:00.000Z"
    },
    "request": {
      "method": "PUT",
      "url": "Condition/4a6f24ed-0183-4a8f-8158-900f936e647d"
    }
  }, {
    "fullUrl": "https://madie.cms.gov/Organization/a9737b18-db72-4fc6-86ba-68d1fb87f05f",
    "resource": {
      "resourceType": "Organization",
      "id": "a9737b18-db72-4fc6-86ba-68d1fb87f05f",
      "meta": {
        "profile": [ "http://hl7.org/fhir/us/qicore/StructureDefinition/qicore-organization" ]
      },
      "identifier": [ {
        "use": "temp",
        "system": "urn:oid:2.16.840.1.113883.4.4",
        "value": "21-3259825"
      } ],
      "active": true,
      "type": [ {
        "coding": [ {
          "system": "http://terminology.hl7.org/CodeSystem/organization-type",
          "code": "pay",
          "display": "Payer"
        } ]
      } ],
      "name": "Blue Cross Blue Shield of Texas",
      "telecom": [ {
        "system": "phone",
        "value": "(+1) 972-766-6900"
      } ],
      "address": [ {
        "use": "billing",
        "type": "postal",
        "line": [ "P.O. Box 660044" ],
        "city": "Dallas",
        "state": "TX",
        "postalCode": "75266-0044",
        "country": "USA"
      } ]
    },
    "request": {
      "method": "PUT",
      "url": "Organization/a9737b18-db72-4fc6-86ba-68d1fb87f05f"
    }
  }, {
    "fullUrl": "https://madie.cms.gov/Practitioner/511c12e2-4b66-4437-b8d2-57f29e6eda29",
    "resource": {
      "resourceType": "Practitioner",
      "id": "511c12e2-4b66-4437-b8d2-57f29e6eda29",
      "meta": {
        "profile": [ "http://hl7.org/fhir/us/qicore/StructureDefinition/qicore-practitioner" ]
      },
      "identifier": [ {
        "system": "http://hl7.org/fhir/sid/us-npi",
        "value": "9999999896"
      } ],
      "name": [ {
        "family": "Evil",
        "prefix": [ "Dr" ]
      } ]
    },
    "request": {
      "method": "PUT",
      "url": "Practitioner/511c12e2-4b66-4437-b8d2-57f29e6eda29"
    }
  }, {
    "fullUrl": "https://madie.cms.gov/MeasureReport/514d5389-9f70-409a-82ec-eb2b49444bc2",
    "resource": {
      "resourceType": "MeasureReport",
      "id": "514d5389-9f70-409a-82ec-eb2b49444bc2",
      "meta": {
        "profile": [ "http://hl7.org/fhir/us/cqfmeasures/StructureDefinition/test-case-cqfm" ]
      },
      "contained": [ {
        "resourceType": "Parameters",
        "id": "ff67272c-c0a9-454f-9aad-5e8c21d20228-parameters",
        "parameter": [ {
          "name": "subject",
          "valueString": "81386d2f-e6d7-4433-b477-314e658f8cfe"
        } ]
      } ],
      "extension": [ {
        "url": "http://hl7.org/fhir/StructureDefinition/cqf-inputParameters",
        "valueReference": {
          "reference": "#ff67272c-c0a9-454f-9aad-5e8c21d20228-parameters"
        }
      }, {
        "url": "http://hl7.org/fhir/us/cqfmeasures/StructureDefinition/cqfm-testCaseDescription",
        "valueMarkdown": "Pt. discharged on anticoagulant, starts same time as OccurA, patient has a history of atrial fibrillation\n"
      } ],
      "modifierExtension": [ {
        "url": "http://hl7.org/fhir/us/cqfmeasures/StructureDefinition/cqfm-isTestCase",
        "valueBoolean": true
      } ],
      "status": "complete",
      "type": "individual",
      "measure": "https://madie.cms.gov/Measure/CMS71FHIRSTKAnticoagAFFlutter",
      "period": {
        "start": "2026-01-01",
        "end": "2026-12-31"
      },
      "group": [ {
        "id": "Group_1",
        "population": [ {
          "id": "InitialPopulation_1",
          "code": {
            "coding": [ {
              "system": "http://terminology.hl7.org/CodeSystem/measure-population",
              "code": "initial-population",
              "display": "Initial Population"
            } ]
          },
          "count": 1
        }, {
          "id": "Denominator_1",
          "code": {
            "coding": [ {
              "system": "http://terminology.hl7.org/CodeSystem/measure-population",
              "code": "denominator",
              "display": "Denominator"
            } ]
          },
          "count": 1
        }, {
          "id": "DenominatorExclusion_1",
          "code": {
            "coding": [ {
              "system": "http://terminology.hl7.org/CodeSystem/measure-population",
              "code": "denominator-exclusion",
              "display": "Denominator Exclusion"
            } ]
          },
          "count": 0
        }, {
          "id": "Numerator_1",
          "code": {
            "coding": [ {
              "system": "http://terminology.hl7.org/CodeSystem/measure-population",
              "code": "numerator",
              "display": "Numerator"
            } ]
          },
          "count": 1
        }, {
          "id": "DenominatorException_1",
          "code": {
            "coding": [ {
              "system": "http://terminology.hl7.org/CodeSystem/measure-population",
              "code": "denominator-exception",
              "display": "Denominator Exception"
            } ]
          },
          "count": 0
        } ],
        "measureScore": {
          "value": 0.0
        }
      } ],
      "evaluatedResource": [ {
        "reference": "Patient/81386d2f-e6d7-4433-b477-314e658f8cfe"
      }, {
        "reference": "Condition/176ae560-d07d-492d-8951-07a6a9d4f42d"
      }, {
        "reference": "Encounter/d261033f-d651-4812-9501-c3b56c68dbf0"
      }, {
        "reference": "Claim/e130df88-05d1-4df5-bd8d-6e77f55c3f56"
      }, {
        "reference": "MedicationRequest/5463bd55-75c4-4d3f-a4ed-07f33915ce09"
      }, {
        "reference": "Coverage/d3bb9c2b-a950-40a8-abeb-32e55149c8aa"
      }, {
        "reference": "Condition/4a6f24ed-0183-4a8f-8158-900f936e647d"
      }, {
        "reference": "Organization/a9737b18-db72-4fc6-86ba-68d1fb87f05f"
      }, {
        "reference": "Practitioner/511c12e2-4b66-4437-b8d2-57f29e6eda29"
      } ]
    },
    "request": {
      "method": "PUT",
      "url": "MeasureReport/514d5389-9f70-409a-82ec-eb2b49444bc2"
    }
  } ]
}