{
  "resourceType": "Bundle",
  "id": "633c9d030968f8012250fc84",
  "type": "transaction",
  "entry": [ {
    "fullUrl": "https://madie.cms.gov/Patient/e8df70c5-74a8-4a26-871c-0301bcf9fd45",
    "resource": {
      "resourceType": "Patient",
      "id": "e8df70c5-74a8-4a26-871c-0301bcf9fd45",
      "meta": {
        "profile": [ "http://hl7.org/fhir/us/qicore/StructureDefinition/qicore-patient" ]
      },
      "text": {
        "status": "generated",
        "div": "<div xmlns=\"http://www.w3.org/1999/xhtml\"><div class=\"hapiHeaderText\">DENEXPass CMOdurEnc_ED&lt;1hrNoObsBFEnc <b>DENEXPASS </b></div><table class=\"hapiPropertyTable\"><tbody><tr><td>Identifier</td><td>49d4dc38463db4c2b58eeaff86ecd8cb</td></tr><tr><td>Date of birth</td><td><span>18 September 1985</span></td></tr></tbody></table></div>"
      },
      "extension": [ {
        "url": "http://hl7.org/fhir/us/core/StructureDefinition/us-core-race",
        "extension": [ {
          "url": "ombCategory",
          "valueCoding": {
            "system": "urn:oid:2.16.840.1.113883.6.238",
            "code": "1002-5",
            "display": "American Indian or Alaska Native",
            "userSelected": true
          }
        }, {
          "url": "text",
          "valueString": "American Indian or Alaska Native"
        } ]
      }, {
        "url": "http://hl7.org/fhir/us/core/StructureDefinition/us-core-ethnicity",
        "extension": [ {
          "url": "ombCategory",
          "valueCoding": {
            "system": "urn:oid:2.16.840.1.113883.6.238",
            "code": "2135-2",
            "display": "Hispanic or Latino",
            "userSelected": true
          }
        }, {
          "url": "text",
          "valueString": "Hispanic or Latino"
        } ]
      } ],
      "identifier": [ {
        "type": {
          "coding": [ {
            "system": "http://terminology.hl7.org/CodeSystem/v2-0203",
            "code": "MR"
          } ]
        },
        "system": "https://bonnie-fhir.healthit.gov/",
        "value": "633c9d030968f8012250fc84"
      } ],
      "active": true,
      "name": [ {
        "use": "usual",
        "family": "DENEXPass",
        "given": [ "DENEXPass CMOdurEncEDlt1hrNoObsBFEnc" ]
      } ],
      "gender": "female",
      "birthDate": "1986-09-18"
    },
    "request": {
      "method": "PUT",
      "url": "Patient/e8df70c5-74a8-4a26-871c-0301bcf9fd45"
    }
  }, {
    "fullUrl": "https://madie.cms.gov/Claim/8f20b5cf-08f5-4832-8e86-e6a4c08233fe",
    "resource": {
      "resourceType": "Claim",
      "id": "8f20b5cf-08f5-4832-8e86-e6a4c08233fe",
      "meta": {
        "profile": [ "http://hl7.org/fhir/us/qicore/StructureDefinition/qicore-claim" ]
      },
      "status": "active",
      "type": {
        "coding": [ {
          "system": "http://terminology.hl7.org/CodeSystem/claim-type",
          "code": "institutional"
        } ]
      },
      "use": "claim",
      "patient": {
        "reference": "Patient/e8df70c5-74a8-4a26-871c-0301bcf9fd45"
      },
      "created": "2026-12-01",
      "provider": {
        "reference": "Practitioner/e66db69b-12b3-44d9-976f-86e449f510cc"
      },
      "priority": {
        "coding": [ {
          "system": "http://terminology.hl7.org/CodeSystem/processpriority",
          "code": "normal"
        } ]
      },
      "diagnosis": [ {
        "sequence": 1,
        "diagnosisCodeableConcept": {
          "coding": [ {
            "system": "http://hl7.org/fhir/sid/icd-10-cm",
            "code": "I63.00"
          } ]
        },
        "type": [ {
          "coding": [ {
            "system": "http://terminology.hl7.org/CodeSystem/ex-diagnosistype",
            "code": "principal"
          } ]
        } ]
      } ],
      "insurance": [ {
        "sequence": 1,
        "focal": true,
        "coverage": {
          "reference": "Coverage/5fa041661c76ba66d9959367"
        }
      } ],
      "item": [ {
        "sequence": 1,
        "diagnosisSequence": [ 1 ],
        "productOrService": {
          "coding": [ {
            "system": "http://terminology.hl7.org/CodeSystem/ex-USCLS",
            "code": "99555"
          } ]
        },
        "encounter": [ {
          "reference": "Encounter/33cc34c4-6ccc-4d45-9aae-5c73df93d67c"
        } ]
      } ]
    },
    "request": {
      "method": "PUT",
      "url": "Claim/8f20b5cf-08f5-4832-8e86-e6a4c08233fe"
    }
  }, {
    "fullUrl": "https://madie.cms.gov/Condition/bd12d2b8-42b2-4393-8e65-c23af3d94d51",
    "resource": {
      "resourceType": "Condition",
      "id": "bd12d2b8-42b2-4393-8e65-c23af3d94d51",
      "meta": {
        "profile": [ "http://hl7.org/fhir/us/qicore/StructureDefinition/qicore-condition-problems-health-concerns" ]
      },
      "clinicalStatus": {
        "coding": [ {
          "system": "http://terminology.hl7.org/CodeSystem/condition-clinical",
          "code": "inactive"
        } ]
      },
      "verificationStatus": {
        "coding": [ {
          "system": "http://terminology.hl7.org/CodeSystem/condition-ver-status",
          "code": "confirmed"
        } ]
      },
      "category": [ {
        "coding": [ {
          "system": "http://terminology.hl7.org/CodeSystem/condition-category",
          "code": "problem-list-item"
        } ]
      } ],
      "code": {
        "coding": [ {
          "system": "http://hl7.org/fhir/sid/icd-10-cm",
          "code": "I48.20"
        }, {
          "system": "http://hl7.org/fhir/sid/icd-10-cm",
          "code": "I48.0"
        }, {
          "system": "http://snomed.info/sct",
          "code": "5370000"
        } ]
      },
      "subject": {
        "reference": "Patient/e8df70c5-74a8-4a26-871c-0301bcf9fd45"
      },
      "onsetDateTime": "2026-10-01T09:00:00.000Z",
      "abatementDateTime": "2026-10-12T00:15:00.000Z"
    },
    "request": {
      "method": "PUT",
      "url": "Condition/bd12d2b8-42b2-4393-8e65-c23af3d94d51"
    }
  }, {
    "fullUrl": "https://madie.cms.gov/Encounter/b11abd66-65fa-4f46-b4b6-25f450982263",
    "resource": {
      "resourceType": "Encounter",
      "id": "b11abd66-65fa-4f46-b4b6-25f450982263",
      "meta": {
        "profile": [ "http://hl7.org/fhir/us/qicore/StructureDefinition/qicore-encounter" ]
      },
      "status": "finished",
      "class": {
        "system": "http://terminology.hl7.org/CodeSystem/v3-ActCode",
        "code": "EMER",
        "display": "emergency"
      },
      "type": [ {
        "coding": [ {
          "system": "http://snomed.info/sct",
          "code": "4525004"
        } ]
      } ],
      "subject": {
        "reference": "Patient/e8df70c5-74a8-4a26-871c-0301bcf9fd45"
      },
      "period": {
        "start": "2026-10-01T09:00:00.000Z",
        "end": "2026-10-01T11:00:00.000Z"
      },
      "length": {
        "value": 0,
        "unit": "days"
      }
    },
    "request": {
      "method": "PUT",
      "url": "Encounter/b11abd66-65fa-4f46-b4b6-25f450982263"
    }
  }, {
    "fullUrl": "https://madie.cms.gov/Encounter/33cc34c4-6ccc-4d45-9aae-5c73df93d67c",
    "resource": {
      "resourceType": "Encounter",
      "id": "33cc34c4-6ccc-4d45-9aae-5c73df93d67c",
      "meta": {
        "profile": [ "http://hl7.org/fhir/us/qicore/StructureDefinition/qicore-encounter" ]
      },
      "status": "finished",
      "class": {
        "system": "http://terminology.hl7.org/CodeSystem/v3-ActCode",
        "code": "IMP",
        "display": "inpatient encounter"
      },
      "type": [ {
        "coding": [ {
          "system": "http://snomed.info/sct",
          "code": "32485007"
        } ]
      } ],
      "subject": {
        "reference": "Patient/e8df70c5-74a8-4a26-871c-0301bcf9fd45"
      },
      "period": {
        "start": "2026-10-01T11:59:00.000Z",
        "end": "2026-10-12T00:15:00.000Z"
      },
      "length": {
        "value": 11,
        "unit": "days"
      },
      "reasonReference": [ {
        "reference": "Condition/bd12d2b8-42b2-4393-8e65-c23af3d94d51"
      } ]
    },
    "request": {
      "method": "PUT",
      "url": "Encounter/33cc34c4-6ccc-4d45-9aae-5c73df93d67c"
    }
  }, {
    "fullUrl": "https://madie.cms.gov/ServiceRequest/1df4066f-4682-4a99-866f-39a2b474c86f",
    "resource": {
      "resourceType": "ServiceRequest",
      "id": "1df4066f-4682-4a99-866f-39a2b474c86f",
      "meta": {
        "profile": [ "http://hl7.org/fhir/us/qicore/StructureDefinition/qicore-servicerequest" ]
      },
      "status": "active",
      "intent": "order",
      "code": {
        "coding": [ {
          "system": "http://snomed.info/sct",
          "code": "133918004"
        } ]
      },
      "subject": {
        "reference": "Patient/e8df70c5-74a8-4a26-871c-0301bcf9fd45"
      },
      "authoredOn": "2026-10-01T11:30:00.000Z"
    },
    "request": {
      "method": "PUT",
      "url": "ServiceRequest/1df4066f-4682-4a99-866f-39a2b474c86f"
    }
  }, {
    "fullUrl": "https://madie.cms.gov/Coverage/57e064e6-6fe7-4287-89bb-737ce3dc8aa9",
    "resource": {
      "resourceType": "Coverage",
      "id": "57e064e6-6fe7-4287-89bb-737ce3dc8aa9",
      "status": "active",
      "subscriberId": "523435",
      "beneficiary": {
        "reference": "Patient/e8df70c5-74a8-4a26-871c-0301bcf9fd45"
      },
      "relationship": {
        "coding": [ {
          "system": "http://terminology.hl7.org/CodeSystem/subscriber-relationship",
          "code": "self"
        } ]
      },
      "period": {
        "start": "1986-09-18T08:00:00.000Z"
      },
      "payor": [ {
        "reference": "Organization/30327297-afb4-46c0-9620-78e68939bfe9"
      } ]
    },
    "request": {
      "method": "PUT",
      "url": "Coverage/57e064e6-6fe7-4287-89bb-737ce3dc8aa9"
    }
  }, {
    "fullUrl": "https://madie.cms.gov/Condition/13510406-880f-4a74-b9ac-09d1654776a6",
    "resource": {
      "resourceType": "Condition",
      "id": "13510406-880f-4a74-b9ac-09d1654776a6",
      "meta": {
        "profile": [ "http://hl7.org/fhir/us/qicore/StructureDefinition/qicore-condition-encounter-diagnosis" ]
      },
      "clinicalStatus": {
        "coding": [ {
          "system": "http://terminology.hl7.org/CodeSystem/condition-clinical",
          "code": "active"
        } ]
      },
      "verificationStatus": {
        "coding": [ {
          "system": "http://terminology.hl7.org/CodeSystem/condition-ver-status",
          "code": "confirmed"
        } ]
      },
      "category": [ {
        "coding": [ {
          "system": "http://terminology.hl7.org/CodeSystem/condition-category",
          "code": "encounter-diagnosis",
          "display": "Encounter Diagnosis"
        } ]
      } ],
      "code": {
        "coding": [ {
          "system": "http://snomed.info/sct",
          "version": "2021-09",
          "code": "111297002",
          "display": "Nonparalytic stroke (disorder)",
          "userSelected": true
        } ]
      },
      "subject": {
        "reference": "Patient/e8df70c5-74a8-4a26-871c-0301bcf9fd45"
      },
      "recordedDate": "2026-10-13T08:00:00.000Z"
    },
    "request": {
      "method": "PUT",
      "url": "Condition/13510406-880f-4a74-b9ac-09d1654776a6"
    }
  }, {
    "fullUrl": "https://madie.cms.gov/Organization/30327297-afb4-46c0-9620-78e68939bfe9",
    "resource": {
      "resourceType": "Organization",
      "id": "30327297-afb4-46c0-9620-78e68939bfe9",
      "meta": {
        "profile": [ "http://hl7.org/fhir/us/qicore/StructureDefinition/qicore-organization" ]
      },
      "identifier": [ {
        "use": "temp",
        "system": "urn:oid:2.16.840.1.113883.4.4",
        "value": "21-3259825"
      } ],
      "active": true,
      "type": [ {
        "coding": [ {
          "system": "http://terminology.hl7.org/CodeSystem/organization-type",
          "code": "pay",
          "display": "Payer"
        } ]
      } ],
      "name": "Blue Cross Blue Shield of Texas",
      "telecom": [ {
        "system": "phone",
        "value": "(+1) 972-766-6900"
      } ],
      "address": [ {
        "use": "billing",
        "type": "postal",
        "line": [ "P.O. Box 660044" ],
        "city": "Dallas",
        "state": "TX",
        "postalCode": "75266-0044",
        "country": "USA"
      } ]
    },
    "request": {
      "method": "PUT",
      "url": "Organization/30327297-afb4-46c0-9620-78e68939bfe9"
    }
  }, {
    "fullUrl": "https://madie.cms.gov/Practitioner/e66db69b-12b3-44d9-976f-86e449f510cc",
    "resource": {
      "resourceType": "Practitioner",
      "id": "e66db69b-12b3-44d9-976f-86e449f510cc",
      "meta": {
        "profile": [ "http://hl7.org/fhir/us/qicore/StructureDefinition/qicore-practitioner" ]
      },
      "identifier": [ {
        "system": "http://hl7.org/fhir/sid/us-npi",
        "value": "9999999896"
      } ],
      "name": [ {
        "family": "Evil",
        "prefix": [ "Dr" ]
      } ]
    },
    "request": {
      "method": "PUT",
      "url": "Practitioner/e66db69b-12b3-44d9-976f-86e449f510cc"
    }
  }, {
    "fullUrl": "https://madie.cms.gov/MeasureReport/5e46191e-942e-4cc0-ba4c-c36ba9ba9221",
    "resource": {
      "resourceType": "MeasureReport",
      "id": "5e46191e-942e-4cc0-ba4c-c36ba9ba9221",
      "meta": {
        "profile": [ "http://hl7.org/fhir/us/cqfmeasures/StructureDefinition/test-case-cqfm" ]
      },
      "contained": [ {
        "resourceType": "Parameters",
        "id": "8da672a3-ea3a-4d95-a8bd-50a185f711c2-parameters",
        "parameter": [ {
          "name": "subject",
          "valueString": "e8df70c5-74a8-4a26-871c-0301bcf9fd45"
        } ]
      } ],
      "extension": [ {
        "url": "http://hl7.org/fhir/StructureDefinition/cqf-inputParameters",
        "valueReference": {
          "reference": "#8da672a3-ea3a-4d95-a8bd-50a185f711c2-parameters"
        }
      }, {
        "url": "http://hl7.org/fhir/us/cqfmeasures/StructureDefinition/cqfm-testCaseDescription",
        "valueMarkdown": "Patient receives CMO during inpatient encounter. ED starts 59 minutes before inpatient encounter start on the same day. No Observation. Testing day of operator with HospitalizationWithObservation function.\n"
      } ],
      "modifierExtension": [ {
        "url": "http://hl7.org/fhir/us/cqfmeasures/StructureDefinition/cqfm-isTestCase",
        "valueBoolean": true
      } ],
      "status": "complete",
      "type": "individual",
      "measure": "https://madie.cms.gov/Measure/CMS71FHIRSTKAnticoagAFFlutter",
      "period": {
        "start": "2026-01-01",
        "end": "2026-12-31"
      },
      "group": [ {
        "id": "Group_1",
        "population": [ {
          "id": "InitialPopulation_1",
          "code": {
            "coding": [ {
              "system": "http://terminology.hl7.org/CodeSystem/measure-population",
              "code": "initial-population",
              "display": "Initial Population"
            } ]
          },
          "count": 1
        }, {
          "id": "Denominator_1",
          "code": {
            "coding": [ {
              "system": "http://terminology.hl7.org/CodeSystem/measure-population",
              "code": "denominator",
              "display": "Denominator"
            } ]
          },
          "count": 1
        }, {
          "id": "DenominatorExclusion_1",
          "code": {
            "coding": [ {
              "system": "http://terminology.hl7.org/CodeSystem/measure-population",
              "code": "denominator-exclusion",
              "display": "Denominator Exclusion"
            } ]
          },
          "count": 1
        }, {
          "id": "Numerator_1",
          "code": {
            "coding": [ {
              "system": "http://terminology.hl7.org/CodeSystem/measure-population",
              "code": "numerator",
              "display": "Numerator"
            } ]
          },
          "count": 0
        }, {
          "id": "DenominatorException_1",
          "code": {
            "coding": [ {
              "system": "http://terminology.hl7.org/CodeSystem/measure-population",
              "code": "denominator-exception",
              "display": "Denominator Exception"
            } ]
          },
          "count": 0
        } ],
        "measureScore": {
          "value": 0.0
        }
      } ],
      "evaluatedResource": [ {
        "reference": "Patient/e8df70c5-74a8-4a26-871c-0301bcf9fd45"
      }, {
        "reference": "Claim/8f20b5cf-08f5-4832-8e86-e6a4c08233fe"
      }, {
        "reference": "Condition/bd12d2b8-42b2-4393-8e65-c23af3d94d51"
      }, {
        "reference": "Encounter/b11abd66-65fa-4f46-b4b6-25f450982263"
      }, {
        "reference": "Encounter/33cc34c4-6ccc-4d45-9aae-5c73df93d67c"
      }, {
        "reference": "ServiceRequest/1df4066f-4682-4a99-866f-39a2b474c86f"
      }, {
        "reference": "Coverage/57e064e6-6fe7-4287-89bb-737ce3dc8aa9"
      }, {
        "reference": "Condition/13510406-880f-4a74-b9ac-09d1654776a6"
      }, {
        "reference": "Organization/30327297-afb4-46c0-9620-78e68939bfe9"
      }, {
        "reference": "Practitioner/e66db69b-12b3-44d9-976f-86e449f510cc"
      } ]
    },
    "request": {
      "method": "PUT",
      "url": "MeasureReport/5e46191e-942e-4cc0-ba4c-c36ba9ba9221"
    }
  } ]
}