{
  "resourceType": "Bundle",
  "id": "633c9d040968f8012250fca8",
  "type": "transaction",
  "entry": [ {
    "fullUrl": "https://madie.cms.gov/Patient/cc42fc09-d5ed-4ac5-980e-f16279cf0499",
    "resource": {
      "resourceType": "Patient",
      "id": "cc42fc09-d5ed-4ac5-980e-f16279cf0499",
      "meta": {
        "profile": [ "http://hl7.org/fhir/us/qicore/StructureDefinition/qicore-patient" ]
      },
      "text": {
        "status": "generated",
        "div": "<div xmlns=\"http://www.w3.org/1999/xhtml\"><div class=\"hapiHeaderText\">CMOdurED_ED&gt;1hrObs&lt;1hrBFEnc <b>DENEXFAIL </b></div><table class=\"hapiPropertyTable\"><tbody><tr><td>Identifier</td><td>f462825629b56fcd20839ac515dc0513d89bc3fe2bc1172dcd3636bdb9c318c7</td></tr><tr><td>Date of birth</td><td><span>18 September 1985</span></td></tr></tbody></table></div>"
      },
      "extension": [ {
        "url": "http://hl7.org/fhir/us/core/StructureDefinition/us-core-race",
        "extension": [ {
          "url": "ombCategory",
          "valueCoding": {
            "system": "urn:oid:2.16.840.1.113883.6.238",
            "code": "1002-5",
            "display": "American Indian or Alaska Native",
            "userSelected": true
          }
        }, {
          "url": "text",
          "valueString": "American Indian or Alaska Native"
        } ]
      }, {
        "url": "http://hl7.org/fhir/us/core/StructureDefinition/us-core-ethnicity",
        "extension": [ {
          "url": "ombCategory",
          "valueCoding": {
            "system": "urn:oid:2.16.840.1.113883.6.238",
            "code": "2135-2",
            "display": "Hispanic or Latino",
            "userSelected": true
          }
        }, {
          "url": "text",
          "valueString": "Hispanic or Latino"
        } ]
      } ],
      "identifier": [ {
        "type": {
          "coding": [ {
            "system": "http://terminology.hl7.org/CodeSystem/v2-0203",
            "code": "MR"
          } ]
        },
        "system": "https://bonnie-fhir.healthit.gov/",
        "value": "633c9d040968f8012250fca8"
      } ],
      "active": true,
      "name": [ {
        "use": "usual",
        "family": "DENEXFail",
        "given": [ "CMOdurED_ED>1hrObs<1hrBFEnc" ]
      } ],
      "gender": "female",
      "birthDate": "1986-09-18"
    },
    "request": {
      "method": "PUT",
      "url": "Patient/cc42fc09-d5ed-4ac5-980e-f16279cf0499"
    }
  }, {
    "fullUrl": "https://madie.cms.gov/Condition/c3f81cbf-4c3e-4730-a281-acf0563b9506",
    "resource": {
      "resourceType": "Condition",
      "id": "c3f81cbf-4c3e-4730-a281-acf0563b9506",
      "meta": {
        "profile": [ "http://hl7.org/fhir/us/qicore/StructureDefinition/qicore-condition-problems-health-concerns" ]
      },
      "clinicalStatus": {
        "coding": [ {
          "system": "http://terminology.hl7.org/CodeSystem/condition-clinical",
          "code": "inactive"
        } ]
      },
      "verificationStatus": {
        "coding": [ {
          "system": "http://terminology.hl7.org/CodeSystem/condition-ver-status",
          "code": "confirmed"
        } ]
      },
      "category": [ {
        "coding": [ {
          "system": "http://terminology.hl7.org/CodeSystem/condition-category",
          "code": "problem-list-item"
        } ]
      } ],
      "code": {
        "coding": [ {
          "system": "http://hl7.org/fhir/sid/icd-9-cm",
          "code": "427.31"
        }, {
          "system": "http://hl7.org/fhir/sid/icd-10-cm",
          "code": "I48.0"
        }, {
          "system": "http://snomed.info/sct",
          "code": "5370000"
        } ]
      },
      "subject": {
        "reference": "Patient/cc42fc09-d5ed-4ac5-980e-f16279cf0499"
      },
      "onsetDateTime": "2026-10-01T09:00:00.000Z",
      "abatementDateTime": "2026-10-12T00:15:00.000Z"
    },
    "request": {
      "method": "PUT",
      "url": "Condition/c3f81cbf-4c3e-4730-a281-acf0563b9506"
    }
  }, {
    "fullUrl": "https://madie.cms.gov/Encounter/69744f57-c723-4b3b-94af-712181935118",
    "resource": {
      "resourceType": "Encounter",
      "id": "69744f57-c723-4b3b-94af-712181935118",
      "meta": {
        "profile": [ "http://hl7.org/fhir/us/qicore/StructureDefinition/qicore-encounter" ]
      },
      "status": "finished",
      "class": {
        "system": "http://terminology.hl7.org/CodeSystem/v3-ActCode",
        "code": "EMER",
        "display": "emergency"
      },
      "type": [ {
        "coding": [ {
          "system": "http://snomed.info/sct",
          "code": "4525004"
        } ]
      } ],
      "subject": {
        "reference": "Patient/cc42fc09-d5ed-4ac5-980e-f16279cf0499"
      },
      "period": {
        "start": "2026-09-30T07:59:00.000Z",
        "end": "2026-09-30T08:00:00.000Z"
      },
      "length": {
        "value": 0,
        "unit": "days"
      }
    },
    "request": {
      "method": "PUT",
      "url": "Encounter/69744f57-c723-4b3b-94af-712181935118"
    }
  }, {
    "fullUrl": "https://madie.cms.gov/Encounter/93f9906a-c2ff-465a-8851-81bbc253692c",
    "resource": {
      "resourceType": "Encounter",
      "id": "93f9906a-c2ff-465a-8851-81bbc253692c",
      "meta": {
        "profile": [ "http://hl7.org/fhir/us/qicore/StructureDefinition/qicore-encounter" ]
      },
      "status": "finished",
      "class": {
        "system": "http://terminology.hl7.org/CodeSystem/v3-ActCode",
        "code": "OBSENC",
        "display": "observation encounter"
      },
      "type": [ {
        "coding": [ {
          "system": "http://snomed.info/sct",
          "code": "448851000124103"
        } ]
      } ],
      "subject": {
        "reference": "Patient/cc42fc09-d5ed-4ac5-980e-f16279cf0499"
      },
      "period": {
        "start": "2026-09-30T09:01:00.000Z",
        "end": "2026-09-30T09:05:00.000Z"
      },
      "length": {
        "value": 0,
        "unit": "days"
      }
    },
    "request": {
      "method": "PUT",
      "url": "Encounter/93f9906a-c2ff-465a-8851-81bbc253692c"
    }
  }, {
    "fullUrl": "https://madie.cms.gov/Encounter/001ee5cc-8586-4bb8-aee3-c8a74426d023",
    "resource": {
      "resourceType": "Encounter",
      "id": "001ee5cc-8586-4bb8-aee3-c8a74426d023",
      "meta": {
        "profile": [ "http://hl7.org/fhir/us/qicore/StructureDefinition/qicore-encounter" ]
      },
      "status": "finished",
      "class": {
        "system": "http://terminology.hl7.org/CodeSystem/v3-ActCode",
        "code": "IMP",
        "display": "inpatient encounter"
      },
      "type": [ {
        "coding": [ {
          "system": "http://snomed.info/sct",
          "code": "32485007"
        } ]
      } ],
      "subject": {
        "reference": "Patient/cc42fc09-d5ed-4ac5-980e-f16279cf0499"
      },
      "period": {
        "start": "2026-09-30T10:05:00.000Z",
        "end": "2026-10-12T00:15:00.000Z"
      },
      "length": {
        "value": 12,
        "unit": "days"
      },
      "reasonReference": [ {
        "reference": "Condition/c3f81cbf-4c3e-4730-a281-acf0563b9506"
      } ]
    },
    "request": {
      "method": "PUT",
      "url": "Encounter/001ee5cc-8586-4bb8-aee3-c8a74426d023"
    }
  }, {
    "fullUrl": "https://madie.cms.gov/ServiceRequest/0c3601b3-b040-4053-be32-42d81ccdcae1",
    "resource": {
      "resourceType": "ServiceRequest",
      "id": "0c3601b3-b040-4053-be32-42d81ccdcae1",
      "meta": {
        "profile": [ "http://hl7.org/fhir/us/qicore/StructureDefinition/qicore-servicerequest" ]
      },
      "status": "active",
      "intent": "order",
      "code": {
        "coding": [ {
          "system": "http://snomed.info/sct",
          "code": "133918004"
        } ]
      },
      "subject": {
        "reference": "Patient/cc42fc09-d5ed-4ac5-980e-f16279cf0499"
      },
      "authoredOn": "2026-09-30T08:00:00.000Z"
    },
    "request": {
      "method": "PUT",
      "url": "ServiceRequest/0c3601b3-b040-4053-be32-42d81ccdcae1"
    }
  }, {
    "fullUrl": "https://madie.cms.gov/Coverage/3951a488-cdc4-4ab3-83d0-3ebde639e5ae",
    "resource": {
      "resourceType": "Coverage",
      "id": "3951a488-cdc4-4ab3-83d0-3ebde639e5ae",
      "meta": {
        "profile": [ "http://hl7.org/fhir/us/qicore/StructureDefinition/qicore-coverage" ]
      },
      "status": "active",
      "subscriberId": "523435",
      "beneficiary": {
        "reference": "Patient/cc42fc09-d5ed-4ac5-980e-f16279cf0499"
      },
      "relationship": {
        "coding": [ {
          "system": "http://terminology.hl7.org/CodeSystem/subscriber-relationship",
          "code": "self"
        } ]
      },
      "payor": [ {
        "reference": "Organization/8a37d15f-1c33-41ab-8d26-6fa09bed854f"
      } ]
    },
    "request": {
      "method": "PUT",
      "url": "Coverage/3951a488-cdc4-4ab3-83d0-3ebde639e5ae"
    }
  }, {
    "fullUrl": "https://madie.cms.gov/Condition/dc44443d-bde7-44ca-8997-ad41dc95e675",
    "resource": {
      "resourceType": "Condition",
      "id": "dc44443d-bde7-44ca-8997-ad41dc95e675",
      "meta": {
        "profile": [ "http://hl7.org/fhir/us/qicore/StructureDefinition/qicore-condition-encounter-diagnosis" ]
      },
      "clinicalStatus": {
        "coding": [ {
          "system": "http://terminology.hl7.org/CodeSystem/condition-clinical",
          "code": "active"
        } ]
      },
      "verificationStatus": {
        "coding": [ {
          "system": "http://terminology.hl7.org/CodeSystem/condition-ver-status",
          "code": "confirmed"
        } ]
      },
      "category": [ {
        "coding": [ {
          "system": "http://terminology.hl7.org/CodeSystem/condition-category",
          "code": "encounter-diagnosis",
          "display": "Encounter Diagnosis"
        } ]
      } ],
      "code": {
        "coding": [ {
          "system": "http://snomed.info/sct",
          "version": "2021-09",
          "code": "111297002",
          "display": "Nonparalytic stroke (disorder)",
          "userSelected": true
        } ]
      },
      "subject": {
        "reference": "Patient/cc42fc09-d5ed-4ac5-980e-f16279cf0499"
      },
      "recordedDate": "2026-10-13T08:00:00.000Z"
    },
    "request": {
      "method": "PUT",
      "url": "Condition/dc44443d-bde7-44ca-8997-ad41dc95e675"
    }
  }, {
    "fullUrl": "https://madie.cms.gov/Claim/4091cd9c-0a2b-4056-9516-c18d410445c9",
    "resource": {
      "resourceType": "Claim",
      "id": "4091cd9c-0a2b-4056-9516-c18d410445c9",
      "meta": {
        "profile": [ "http://hl7.org/fhir/us/qicore/StructureDefinition/qicore-claim" ]
      },
      "status": "active",
      "type": {
        "coding": [ {
          "system": "http://terminology.hl7.org/CodeSystem/claim-type",
          "code": "institutional"
        } ]
      },
      "use": "claim",
      "patient": {
        "reference": "Patient/cc42fc09-d5ed-4ac5-980e-f16279cf0499"
      },
      "created": "2026-12-01",
      "provider": {
        "reference": "Practitioner/9a3c81ca-078a-4c02-9802-9b5eafcf3b31"
      },
      "priority": {
        "coding": [ {
          "system": "http://terminology.hl7.org/CodeSystem/processpriority",
          "code": "normal"
        } ]
      },
      "diagnosis": [ {
        "sequence": 1,
        "diagnosisCodeableConcept": {
          "coding": [ {
            "system": "http://hl7.org/fhir/sid/icd-10-cm",
            "code": "I63.00"
          } ]
        },
        "type": [ {
          "coding": [ {
            "system": "http://terminology.hl7.org/CodeSystem/ex-diagnosistype",
            "code": "principal"
          } ]
        } ]
      } ],
      "insurance": [ {
        "sequence": 1,
        "focal": true,
        "coverage": {
          "reference": "Coverage/5fa041661c76ba66d9959367"
        }
      } ],
      "item": [ {
        "sequence": 1,
        "diagnosisSequence": [ 1 ],
        "productOrService": {
          "coding": [ {
            "system": "http://terminology.hl7.org/CodeSystem/ex-USCLS",
            "code": "99555"
          } ]
        },
        "encounter": [ {
          "reference": "Encounter/001ee5cc-8586-4bb8-aee3-c8a74426d023"
        } ]
      } ]
    },
    "request": {
      "method": "PUT",
      "url": "Claim/4091cd9c-0a2b-4056-9516-c18d410445c9"
    }
  }, {
    "fullUrl": "https://madie.cms.gov/Organization/8a37d15f-1c33-41ab-8d26-6fa09bed854f",
    "resource": {
      "resourceType": "Organization",
      "id": "8a37d15f-1c33-41ab-8d26-6fa09bed854f",
      "meta": {
        "profile": [ "http://hl7.org/fhir/us/qicore/StructureDefinition/qicore-organization" ]
      },
      "identifier": [ {
        "use": "temp",
        "system": "urn:oid:2.16.840.1.113883.4.4",
        "value": "21-3259825"
      } ],
      "active": true,
      "type": [ {
        "coding": [ {
          "system": "http://terminology.hl7.org/CodeSystem/organization-type",
          "code": "pay",
          "display": "Payer"
        } ]
      } ],
      "name": "Blue Cross Blue Shield of Texas",
      "telecom": [ {
        "system": "phone",
        "value": "(+1) 972-766-6900"
      } ],
      "address": [ {
        "use": "billing",
        "type": "postal",
        "line": [ "P.O. Box 660044" ],
        "city": "Dallas",
        "state": "TX",
        "postalCode": "75266-0044",
        "country": "USA"
      } ]
    },
    "request": {
      "method": "PUT",
      "url": "Organization/8a37d15f-1c33-41ab-8d26-6fa09bed854f"
    }
  }, {
    "fullUrl": "https://madie.cms.gov/Practitioner/9a3c81ca-078a-4c02-9802-9b5eafcf3b31",
    "resource": {
      "resourceType": "Practitioner",
      "id": "9a3c81ca-078a-4c02-9802-9b5eafcf3b31",
      "meta": {
        "profile": [ "http://hl7.org/fhir/us/qicore/StructureDefinition/qicore-practitioner" ]
      },
      "identifier": [ {
        "system": "http://hl7.org/fhir/sid/us-npi",
        "value": "9999999896"
      } ],
      "name": [ {
        "family": "Evil",
        "prefix": [ "Dr" ]
      } ]
    },
    "request": {
      "method": "PUT",
      "url": "Practitioner/9a3c81ca-078a-4c02-9802-9b5eafcf3b31"
    }
  }, {
    "fullUrl": "https://madie.cms.gov/MeasureReport/525d9b24-a956-426a-893d-425a35ff6042",
    "resource": {
      "resourceType": "MeasureReport",
      "id": "525d9b24-a956-426a-893d-425a35ff6042",
      "meta": {
        "profile": [ "http://hl7.org/fhir/us/cqfmeasures/StructureDefinition/test-case-cqfm" ]
      },
      "contained": [ {
        "resourceType": "Parameters",
        "id": "d658360e-284c-4ebe-b6df-2fc909746a64-parameters",
        "parameter": [ {
          "name": "subject",
          "valueString": "cc42fc09-d5ed-4ac5-980e-f16279cf0499"
        } ]
      } ],
      "extension": [ {
        "url": "http://hl7.org/fhir/StructureDefinition/cqf-inputParameters",
        "valueReference": {
          "reference": "#d658360e-284c-4ebe-b6df-2fc909746a64-parameters"
        }
      }, {
        "url": "http://hl7.org/fhir/us/cqfmeasures/StructureDefinition/cqfm-testCaseDescription",
        "valueMarkdown": "Patient receives CMO during ED. ED ends 60 min before Obs start and Obs ends 60 min before  inpatient start.  Testing HospitalizationWithObservation function\n"
      } ],
      "modifierExtension": [ {
        "url": "http://hl7.org/fhir/us/cqfmeasures/StructureDefinition/cqfm-isTestCase",
        "valueBoolean": true
      } ],
      "status": "complete",
      "type": "individual",
      "measure": "https://madie.cms.gov/Measure/CMS71FHIRSTKAnticoagAFFlutter",
      "period": {
        "start": "2026-01-01",
        "end": "2026-12-31"
      },
      "group": [ {
        "id": "Group_1",
        "population": [ {
          "id": "InitialPopulation_1",
          "code": {
            "coding": [ {
              "system": "http://terminology.hl7.org/CodeSystem/measure-population",
              "code": "initial-population",
              "display": "Initial Population"
            } ]
          },
          "count": 1
        }, {
          "id": "Denominator_1",
          "code": {
            "coding": [ {
              "system": "http://terminology.hl7.org/CodeSystem/measure-population",
              "code": "denominator",
              "display": "Denominator"
            } ]
          },
          "count": 1
        }, {
          "id": "DenominatorExclusion_1",
          "code": {
            "coding": [ {
              "system": "http://terminology.hl7.org/CodeSystem/measure-population",
              "code": "denominator-exclusion",
              "display": "Denominator Exclusion"
            } ]
          },
          "count": 0
        }, {
          "id": "Numerator_1",
          "code": {
            "coding": [ {
              "system": "http://terminology.hl7.org/CodeSystem/measure-population",
              "code": "numerator",
              "display": "Numerator"
            } ]
          },
          "count": 0
        }, {
          "id": "DenominatorException_1",
          "code": {
            "coding": [ {
              "system": "http://terminology.hl7.org/CodeSystem/measure-population",
              "code": "denominator-exception",
              "display": "Denominator Exception"
            } ]
          },
          "count": 0
        } ],
        "measureScore": {
          "value": 0.0
        }
      } ],
      "evaluatedResource": [ {
        "reference": "Patient/cc42fc09-d5ed-4ac5-980e-f16279cf0499"
      }, {
        "reference": "Condition/c3f81cbf-4c3e-4730-a281-acf0563b9506"
      }, {
        "reference": "Encounter/69744f57-c723-4b3b-94af-712181935118"
      }, {
        "reference": "Encounter/93f9906a-c2ff-465a-8851-81bbc253692c"
      }, {
        "reference": "Encounter/001ee5cc-8586-4bb8-aee3-c8a74426d023"
      }, {
        "reference": "ServiceRequest/0c3601b3-b040-4053-be32-42d81ccdcae1"
      }, {
        "reference": "Coverage/3951a488-cdc4-4ab3-83d0-3ebde639e5ae"
      }, {
        "reference": "Condition/dc44443d-bde7-44ca-8997-ad41dc95e675"
      }, {
        "reference": "Claim/4091cd9c-0a2b-4056-9516-c18d410445c9"
      }, {
        "reference": "Organization/8a37d15f-1c33-41ab-8d26-6fa09bed854f"
      }, {
        "reference": "Practitioner/9a3c81ca-078a-4c02-9802-9b5eafcf3b31"
      } ]
    },
    "request": {
      "method": "PUT",
      "url": "MeasureReport/525d9b24-a956-426a-893d-425a35ff6042"
    }
  } ]
}