{
  "resourceType": "Bundle",
  "id": "633c9d030968f8012250fc90",
  "type": "transaction",
  "entry": [ {
    "fullUrl": "https://madie.cms.gov/Patient/43d04e08-768c-4e5e-a7eb-44219c5e94b1",
    "resource": {
      "resourceType": "Patient",
      "id": "43d04e08-768c-4e5e-a7eb-44219c5e94b1",
      "meta": {
        "profile": [ "http://hl7.org/fhir/us/qicore/StructureDefinition/qicore-patient" ]
      },
      "text": {
        "status": "generated",
        "div": "<div xmlns=\"http://www.w3.org/1999/xhtml\"><div class=\"hapiHeaderText\">DxAfibAtEncEndTime <b>DENOMPASS </b></div><table class=\"hapiPropertyTable\"><tbody><tr><td>Identifier</td><td>07d1b6cfb79c3da7b4c3edf0c8bcb5f1</td></tr><tr><td>Date of birth</td><td><span>01 December 1960</span></td></tr></tbody></table></div>"
      },
      "extension": [ {
        "url": "http://hl7.org/fhir/us/core/StructureDefinition/us-core-race",
        "extension": [ {
          "url": "ombCategory",
          "valueCoding": {
            "system": "urn:oid:2.16.840.1.113883.6.238",
            "code": "1002-5",
            "display": "American Indian or Alaska Native",
            "userSelected": true
          }
        }, {
          "url": "text",
          "valueString": "American Indian or Alaska Native"
        } ]
      }, {
        "url": "http://hl7.org/fhir/us/core/StructureDefinition/us-core-ethnicity",
        "extension": [ {
          "url": "ombCategory",
          "valueCoding": {
            "system": "urn:oid:2.16.840.1.113883.6.238",
            "code": "2135-2",
            "display": "Hispanic or Latino",
            "userSelected": true
          }
        }, {
          "url": "text",
          "valueString": "Hispanic or Latino"
        } ]
      } ],
      "identifier": [ {
        "type": {
          "coding": [ {
            "system": "http://terminology.hl7.org/CodeSystem/v2-0203",
            "code": "MR"
          } ]
        },
        "system": "https://bonnie-fhir.healthit.gov/",
        "value": "633c9d030968f8012250fc90"
      } ],
      "active": true,
      "name": [ {
        "use": "usual",
        "family": "DENOMPass",
        "given": [ "DxAfibAtEncEndTime" ]
      } ],
      "gender": "male",
      "birthDate": "1961-12-01"
    },
    "request": {
      "method": "PUT",
      "url": "Patient/43d04e08-768c-4e5e-a7eb-44219c5e94b1"
    }
  }, {
    "fullUrl": "https://madie.cms.gov/Condition/5d19d90f-de0f-41d2-a747-28a4a66976e2",
    "resource": {
      "resourceType": "Condition",
      "id": "5d19d90f-de0f-41d2-a747-28a4a66976e2",
      "meta": {
        "profile": [ "http://hl7.org/fhir/us/qicore/StructureDefinition/qicore-condition-encounter-diagnosis" ]
      },
      "clinicalStatus": {
        "coding": [ {
          "system": "http://terminology.hl7.org/CodeSystem/condition-clinical",
          "code": "inactive"
        } ]
      },
      "verificationStatus": {
        "coding": [ {
          "system": "http://terminology.hl7.org/CodeSystem/condition-ver-status",
          "code": "confirmed"
        } ]
      },
      "category": [ {
        "coding": [ {
          "system": "http://terminology.hl7.org/CodeSystem/condition-category",
          "code": "encounter-diagnosis",
          "display": "Encounter Diagnosis"
        } ]
      } ],
      "code": {
        "coding": [ {
          "system": "http://snomed.info/sct",
          "code": "195080001"
        }, {
          "system": "http://hl7.org/fhir/sid/icd-9-cm",
          "code": "427.31"
        }, {
          "system": "http://hl7.org/fhir/sid/icd-10-cm",
          "code": "I48.0"
        } ]
      },
      "subject": {
        "reference": "Patient/43d04e08-768c-4e5e-a7eb-44219c5e94b1"
      },
      "onsetDateTime": "2026-02-10T08:15:00.000Z",
      "abatementDateTime": "2026-02-10T08:15:00.000Z"
    },
    "request": {
      "method": "PUT",
      "url": "Condition/5d19d90f-de0f-41d2-a747-28a4a66976e2"
    }
  }, {
    "fullUrl": "https://madie.cms.gov/Encounter/a898b254-bd3f-40d1-9980-37b87164bad6",
    "resource": {
      "resourceType": "Encounter",
      "id": "a898b254-bd3f-40d1-9980-37b87164bad6",
      "meta": {
        "profile": [ "http://hl7.org/fhir/us/qicore/StructureDefinition/qicore-encounter" ]
      },
      "status": "finished",
      "class": {
        "system": "http://terminology.hl7.org/CodeSystem/v3-ActCode",
        "code": "IMP",
        "display": "inpatient encounter"
      },
      "type": [ {
        "coding": [ {
          "system": "http://snomed.info/sct",
          "code": "32485007"
        } ]
      } ],
      "subject": {
        "reference": "Patient/43d04e08-768c-4e5e-a7eb-44219c5e94b1"
      },
      "period": {
        "start": "2026-02-08T08:00:00.000Z",
        "end": "2026-02-10T08:15:00.000Z"
      },
      "length": {
        "value": 2,
        "unit": "days"
      },
      "reasonReference": [ {
        "reference": "Condition/5d19d90f-de0f-41d2-a747-28a4a66976e2"
      } ]
    },
    "request": {
      "method": "PUT",
      "url": "Encounter/a898b254-bd3f-40d1-9980-37b87164bad6"
    }
  }, {
    "fullUrl": "https://madie.cms.gov/Claim/e3064028-58a9-476b-925a-675f039bc861",
    "resource": {
      "resourceType": "Claim",
      "id": "e3064028-58a9-476b-925a-675f039bc861",
      "meta": {
        "profile": [ "http://hl7.org/fhir/us/qicore/StructureDefinition/qicore-claim" ]
      },
      "status": "active",
      "type": {
        "coding": [ {
          "system": "http://terminology.hl7.org/CodeSystem/claim-type",
          "code": "institutional"
        } ]
      },
      "use": "claim",
      "patient": {
        "reference": "Patient/43d04e08-768c-4e5e-a7eb-44219c5e94b1"
      },
      "created": "2026-12-01",
      "provider": {
        "reference": "Practitioner/623fd981-f131-42cb-8e68-160ebf43484b"
      },
      "priority": {
        "coding": [ {
          "system": "http://terminology.hl7.org/CodeSystem/processpriority",
          "code": "normal"
        } ]
      },
      "diagnosis": [ {
        "sequence": 1,
        "diagnosisCodeableConcept": {
          "coding": [ {
            "system": "http://hl7.org/fhir/sid/icd-10-cm",
            "code": "I63.00"
          } ]
        },
        "type": [ {
          "coding": [ {
            "system": "http://terminology.hl7.org/CodeSystem/ex-diagnosistype",
            "code": "principal"
          } ]
        } ]
      } ],
      "insurance": [ {
        "sequence": 1,
        "focal": true,
        "coverage": {
          "reference": "Coverage/5fa041661c76ba66d9959367"
        }
      } ],
      "item": [ {
        "sequence": 1,
        "diagnosisSequence": [ 1 ],
        "productOrService": {
          "coding": [ {
            "system": "http://terminology.hl7.org/CodeSystem/ex-USCLS",
            "code": "99555"
          } ]
        },
        "encounter": [ {
          "reference": "Encounter/a898b254-bd3f-40d1-9980-37b87164bad6"
        } ]
      } ]
    },
    "request": {
      "method": "PUT",
      "url": "Claim/e3064028-58a9-476b-925a-675f039bc861"
    }
  }, {
    "fullUrl": "https://madie.cms.gov/Coverage/8deeb59d-ddd2-4d52-a7ff-9e9d77584ea9",
    "resource": {
      "resourceType": "Coverage",
      "id": "8deeb59d-ddd2-4d52-a7ff-9e9d77584ea9",
      "meta": {
        "profile": [ "http://hl7.org/fhir/us/qicore/StructureDefinition/qicore-coverage" ]
      },
      "status": "active",
      "subscriberId": "523435",
      "beneficiary": {
        "reference": "Patient/43d04e08-768c-4e5e-a7eb-44219c5e94b1"
      },
      "relationship": {
        "coding": [ {
          "system": "http://terminology.hl7.org/CodeSystem/subscriber-relationship",
          "code": "self"
        } ]
      },
      "payor": [ {
        "reference": "Organization/85a49319-8a98-46e9-a38e-9c39a28e3d95"
      } ]
    },
    "request": {
      "method": "PUT",
      "url": "Coverage/8deeb59d-ddd2-4d52-a7ff-9e9d77584ea9"
    }
  }, {
    "fullUrl": "https://madie.cms.gov/Condition/ec5bd96f-f241-4e0c-936e-99cb0ad88f87",
    "resource": {
      "resourceType": "Condition",
      "id": "ec5bd96f-f241-4e0c-936e-99cb0ad88f87",
      "meta": {
        "profile": [ "http://hl7.org/fhir/us/qicore/StructureDefinition/qicore-condition-encounter-diagnosis" ]
      },
      "clinicalStatus": {
        "coding": [ {
          "system": "http://terminology.hl7.org/CodeSystem/condition-clinical",
          "code": "active"
        } ]
      },
      "verificationStatus": {
        "coding": [ {
          "system": "http://terminology.hl7.org/CodeSystem/condition-ver-status",
          "code": "confirmed"
        } ]
      },
      "category": [ {
        "coding": [ {
          "system": "http://terminology.hl7.org/CodeSystem/condition-category",
          "code": "encounter-diagnosis",
          "display": "Encounter Diagnosis"
        } ]
      } ],
      "code": {
        "coding": [ {
          "system": "http://snomed.info/sct",
          "version": "2021-09",
          "code": "111297002",
          "display": "Nonparalytic stroke (disorder)",
          "userSelected": true
        } ]
      },
      "subject": {
        "reference": "Patient/43d04e08-768c-4e5e-a7eb-44219c5e94b1"
      },
      "recordedDate": "2026-10-13T08:00:00.000Z"
    },
    "request": {
      "method": "PUT",
      "url": "Condition/ec5bd96f-f241-4e0c-936e-99cb0ad88f87"
    }
  }, {
    "fullUrl": "https://madie.cms.gov/Organization/85a49319-8a98-46e9-a38e-9c39a28e3d95",
    "resource": {
      "resourceType": "Organization",
      "id": "85a49319-8a98-46e9-a38e-9c39a28e3d95",
      "meta": {
        "profile": [ "http://hl7.org/fhir/us/qicore/StructureDefinition/qicore-organization" ]
      },
      "identifier": [ {
        "use": "temp",
        "system": "urn:oid:2.16.840.1.113883.4.4",
        "value": "21-3259825"
      } ],
      "active": true,
      "type": [ {
        "coding": [ {
          "system": "http://terminology.hl7.org/CodeSystem/organization-type",
          "code": "pay",
          "display": "Payer"
        } ]
      } ],
      "name": "Blue Cross Blue Shield of Texas",
      "telecom": [ {
        "system": "phone",
        "value": "(+1) 972-766-6900"
      } ],
      "address": [ {
        "use": "billing",
        "type": "postal",
        "line": [ "P.O. Box 660044" ],
        "city": "Dallas",
        "state": "TX",
        "postalCode": "75266-0044",
        "country": "USA"
      } ]
    },
    "request": {
      "method": "PUT",
      "url": "Organization/85a49319-8a98-46e9-a38e-9c39a28e3d95"
    }
  }, {
    "fullUrl": "https://madie.cms.gov/Practitioner/623fd981-f131-42cb-8e68-160ebf43484b",
    "resource": {
      "resourceType": "Practitioner",
      "id": "623fd981-f131-42cb-8e68-160ebf43484b",
      "meta": {
        "profile": [ "http://hl7.org/fhir/us/qicore/StructureDefinition/qicore-practitioner" ]
      },
      "identifier": [ {
        "system": "http://hl7.org/fhir/sid/us-npi",
        "value": "9999999896"
      } ],
      "name": [ {
        "family": "Evil",
        "prefix": [ "Dr" ]
      } ]
    },
    "request": {
      "method": "PUT",
      "url": "Practitioner/623fd981-f131-42cb-8e68-160ebf43484b"
    }
  }, {
    "fullUrl": "https://madie.cms.gov/MeasureReport/c6d365b5-0327-447a-bafa-f5b8800d5eff",
    "resource": {
      "resourceType": "MeasureReport",
      "id": "c6d365b5-0327-447a-bafa-f5b8800d5eff",
      "meta": {
        "profile": [ "http://hl7.org/fhir/us/cqfmeasures/StructureDefinition/test-case-cqfm" ]
      },
      "contained": [ {
        "resourceType": "Parameters",
        "id": "3d62c113-2352-43c8-98f0-2ef2052fce33-parameters",
        "parameter": [ {
          "name": "subject",
          "valueString": "43d04e08-768c-4e5e-a7eb-44219c5e94b1"
        } ]
      } ],
      "extension": [ {
        "url": "http://hl7.org/fhir/StructureDefinition/cqf-inputParameters",
        "valueReference": {
          "reference": "#3d62c113-2352-43c8-98f0-2ef2052fce33-parameters"
        }
      }, {
        "url": "http://hl7.org/fhir/us/cqfmeasures/StructureDefinition/cqfm-testCaseDescription",
        "valueMarkdown": "\"Afib as a Diagnosis Datatype, starts at OccurA EndDate\nEdge case to test timing boundaries of diagnosis. \"\n"
      } ],
      "modifierExtension": [ {
        "url": "http://hl7.org/fhir/us/cqfmeasures/StructureDefinition/cqfm-isTestCase",
        "valueBoolean": true
      } ],
      "status": "complete",
      "type": "individual",
      "measure": "https://madie.cms.gov/Measure/CMS71FHIRSTKAnticoagAFFlutter",
      "period": {
        "start": "2026-01-01",
        "end": "2026-12-31"
      },
      "group": [ {
        "id": "Group_1",
        "population": [ {
          "id": "InitialPopulation_1",
          "code": {
            "coding": [ {
              "system": "http://terminology.hl7.org/CodeSystem/measure-population",
              "code": "initial-population",
              "display": "Initial Population"
            } ]
          },
          "count": 1
        }, {
          "id": "Denominator_1",
          "code": {
            "coding": [ {
              "system": "http://terminology.hl7.org/CodeSystem/measure-population",
              "code": "denominator",
              "display": "Denominator"
            } ]
          },
          "count": 1
        }, {
          "id": "DenominatorExclusion_1",
          "code": {
            "coding": [ {
              "system": "http://terminology.hl7.org/CodeSystem/measure-population",
              "code": "denominator-exclusion",
              "display": "Denominator Exclusion"
            } ]
          },
          "count": 0
        }, {
          "id": "Numerator_1",
          "code": {
            "coding": [ {
              "system": "http://terminology.hl7.org/CodeSystem/measure-population",
              "code": "numerator",
              "display": "Numerator"
            } ]
          },
          "count": 0
        }, {
          "id": "DenominatorException_1",
          "code": {
            "coding": [ {
              "system": "http://terminology.hl7.org/CodeSystem/measure-population",
              "code": "denominator-exception",
              "display": "Denominator Exception"
            } ]
          },
          "count": 0
        } ],
        "measureScore": {
          "value": 0.0
        }
      } ],
      "evaluatedResource": [ {
        "reference": "Patient/43d04e08-768c-4e5e-a7eb-44219c5e94b1"
      }, {
        "reference": "Condition/5d19d90f-de0f-41d2-a747-28a4a66976e2"
      }, {
        "reference": "Encounter/a898b254-bd3f-40d1-9980-37b87164bad6"
      }, {
        "reference": "Claim/e3064028-58a9-476b-925a-675f039bc861"
      }, {
        "reference": "Coverage/8deeb59d-ddd2-4d52-a7ff-9e9d77584ea9"
      }, {
        "reference": "Condition/ec5bd96f-f241-4e0c-936e-99cb0ad88f87"
      }, {
        "reference": "Organization/85a49319-8a98-46e9-a38e-9c39a28e3d95"
      }, {
        "reference": "Practitioner/623fd981-f131-42cb-8e68-160ebf43484b"
      } ]
    },
    "request": {
      "method": "PUT",
      "url": "MeasureReport/c6d365b5-0327-447a-bafa-f5b8800d5eff"
    }
  } ]
}