{
  "resourceType": "Bundle",
  "id": "633c9d030968f8012250fc98",
  "type": "transaction",
  "entry": [ {
    "fullUrl": "https://madie.cms.gov/Patient/93ddd5ec-1cd5-4894-afbb-65826d86f41e",
    "resource": {
      "resourceType": "Patient",
      "id": "93ddd5ec-1cd5-4894-afbb-65826d86f41e",
      "meta": {
        "profile": [ "http://hl7.org/fhir/us/qicore/StructureDefinition/qicore-patient" ]
      },
      "text": {
        "status": "generated",
        "div": "<div xmlns=\"http://www.w3.org/1999/xhtml\"><div class=\"hapiHeaderText\">Dx=Afib/flutterStart&lt;EncEnd <b>DENOMPASS </b></div><table class=\"hapiPropertyTable\"><tbody><tr><td>Identifier</td><td>78ca765c8eac1b3053de6906cc86801b</td></tr><tr><td>Date of birth</td><td><span>01 December 1960</span></td></tr></tbody></table></div>"
      },
      "extension": [ {
        "url": "http://hl7.org/fhir/us/core/StructureDefinition/us-core-race",
        "extension": [ {
          "url": "ombCategory",
          "valueCoding": {
            "system": "urn:oid:2.16.840.1.113883.6.238",
            "code": "1002-5",
            "display": "American Indian or Alaska Native",
            "userSelected": true
          }
        }, {
          "url": "text",
          "valueString": "American Indian or Alaska Native"
        } ]
      }, {
        "url": "http://hl7.org/fhir/us/core/StructureDefinition/us-core-ethnicity",
        "extension": [ {
          "url": "ombCategory",
          "valueCoding": {
            "system": "urn:oid:2.16.840.1.113883.6.238",
            "code": "2135-2",
            "display": "Hispanic or Latino",
            "userSelected": true
          }
        }, {
          "url": "text",
          "valueString": "Hispanic or Latino"
        } ]
      } ],
      "identifier": [ {
        "type": {
          "coding": [ {
            "system": "http://terminology.hl7.org/CodeSystem/v2-0203",
            "code": "MR"
          } ]
        },
        "system": "https://bonnie-fhir.healthit.gov/",
        "value": "633c9d030968f8012250fc98"
      } ],
      "active": true,
      "name": [ {
        "use": "usual",
        "family": "DENOMPass",
        "given": [ "Dx=Afib/flutterStart<EncEnd" ]
      } ],
      "gender": "male",
      "birthDate": "1961-12-01"
    },
    "request": {
      "method": "PUT",
      "url": "Patient/93ddd5ec-1cd5-4894-afbb-65826d86f41e"
    }
  }, {
    "fullUrl": "https://madie.cms.gov/Condition/ad4011d1-22a4-4420-950a-160b13dc931a",
    "resource": {
      "resourceType": "Condition",
      "id": "ad4011d1-22a4-4420-950a-160b13dc931a",
      "meta": {
        "profile": [ "http://hl7.org/fhir/us/qicore/StructureDefinition/qicore-condition-encounter-diagnosis" ]
      },
      "clinicalStatus": {
        "coding": [ {
          "system": "http://terminology.hl7.org/CodeSystem/condition-clinical",
          "code": "inactive"
        } ]
      },
      "verificationStatus": {
        "coding": [ {
          "system": "http://terminology.hl7.org/CodeSystem/condition-ver-status",
          "code": "confirmed"
        } ]
      },
      "category": [ {
        "coding": [ {
          "system": "http://terminology.hl7.org/CodeSystem/condition-category",
          "code": "encounter-diagnosis",
          "display": "Encounter Diagnosis"
        } ]
      } ],
      "code": {
        "coding": [ {
          "system": "http://snomed.info/sct",
          "code": "195080001"
        }, {
          "system": "http://hl7.org/fhir/sid/icd-9-cm",
          "code": "427.31"
        }, {
          "system": "http://hl7.org/fhir/sid/icd-10-cm",
          "code": "I48.0"
        } ]
      },
      "subject": {
        "reference": "Patient/93ddd5ec-1cd5-4894-afbb-65826d86f41e"
      },
      "onsetDateTime": "2026-02-09T08:00:00.000Z",
      "abatementDateTime": "2026-02-09T08:15:00.000Z"
    },
    "request": {
      "method": "PUT",
      "url": "Condition/ad4011d1-22a4-4420-950a-160b13dc931a"
    }
  }, {
    "fullUrl": "https://madie.cms.gov/Encounter/df28c0c5-149b-4d32-8a7b-30d1523dcfcd",
    "resource": {
      "resourceType": "Encounter",
      "id": "df28c0c5-149b-4d32-8a7b-30d1523dcfcd",
      "meta": {
        "profile": [ "http://hl7.org/fhir/us/qicore/StructureDefinition/qicore-encounter" ]
      },
      "status": "finished",
      "class": {
        "system": "http://terminology.hl7.org/CodeSystem/v3-ActCode",
        "code": "IMP",
        "display": "inpatient encounter"
      },
      "type": [ {
        "coding": [ {
          "system": "http://snomed.info/sct",
          "code": "183452005"
        } ]
      } ],
      "subject": {
        "reference": "Patient/93ddd5ec-1cd5-4894-afbb-65826d86f41e"
      },
      "period": {
        "start": "2026-02-08T08:00:00.000Z",
        "end": "2026-02-10T08:15:00.000Z"
      },
      "length": {
        "value": 2,
        "unit": "days"
      },
      "reasonReference": [ {
        "reference": "Condition/ad4011d1-22a4-4420-950a-160b13dc931a"
      } ]
    },
    "request": {
      "method": "PUT",
      "url": "Encounter/df28c0c5-149b-4d32-8a7b-30d1523dcfcd"
    }
  }, {
    "fullUrl": "https://madie.cms.gov/Claim/db378ecf-9164-40c1-8743-05d7d6e93840",
    "resource": {
      "resourceType": "Claim",
      "id": "db378ecf-9164-40c1-8743-05d7d6e93840",
      "meta": {
        "profile": [ "http://hl7.org/fhir/us/qicore/StructureDefinition/qicore-claim" ]
      },
      "status": "active",
      "type": {
        "coding": [ {
          "system": "http://terminology.hl7.org/CodeSystem/claim-type",
          "code": "institutional"
        } ]
      },
      "use": "claim",
      "patient": {
        "reference": "Patient/93ddd5ec-1cd5-4894-afbb-65826d86f41e"
      },
      "created": "2026-12-01",
      "provider": {
        "reference": "Practitioner/7578d74e-2a1e-4ad4-a2ad-04e74a9a257b"
      },
      "priority": {
        "coding": [ {
          "system": "http://terminology.hl7.org/CodeSystem/processpriority",
          "code": "normal"
        } ]
      },
      "diagnosis": [ {
        "sequence": 1,
        "diagnosisCodeableConcept": {
          "coding": [ {
            "system": "http://hl7.org/fhir/sid/icd-10-cm",
            "code": "I63.00"
          } ]
        },
        "type": [ {
          "coding": [ {
            "system": "http://terminology.hl7.org/CodeSystem/ex-diagnosistype",
            "code": "principal"
          } ]
        } ]
      } ],
      "insurance": [ {
        "sequence": 1,
        "focal": true,
        "coverage": {
          "reference": "Coverage/5fa041661c76ba66d9959367"
        }
      } ],
      "item": [ {
        "sequence": 1,
        "diagnosisSequence": [ 1 ],
        "productOrService": {
          "coding": [ {
            "system": "http://terminology.hl7.org/CodeSystem/ex-USCLS",
            "code": "99555"
          } ]
        },
        "encounter": [ {
          "reference": "Encounter/df28c0c5-149b-4d32-8a7b-30d1523dcfcd"
        } ]
      } ]
    },
    "request": {
      "method": "PUT",
      "url": "Claim/db378ecf-9164-40c1-8743-05d7d6e93840"
    }
  }, {
    "fullUrl": "https://madie.cms.gov/Coverage/5304606b-5030-44c6-86d1-71591785012d",
    "resource": {
      "resourceType": "Coverage",
      "id": "5304606b-5030-44c6-86d1-71591785012d",
      "meta": {
        "profile": [ "http://hl7.org/fhir/us/qicore/StructureDefinition/qicore-coverage" ]
      },
      "status": "active",
      "subscriberId": "523435",
      "beneficiary": {
        "reference": "Patient/93ddd5ec-1cd5-4894-afbb-65826d86f41e"
      },
      "relationship": {
        "coding": [ {
          "system": "http://terminology.hl7.org/CodeSystem/subscriber-relationship",
          "code": "self"
        } ]
      },
      "payor": [ {
        "reference": "Organization/90a26c7d-ed24-4a94-8d66-d3645ecd9cd6"
      } ]
    },
    "request": {
      "method": "PUT",
      "url": "Coverage/5304606b-5030-44c6-86d1-71591785012d"
    }
  }, {
    "fullUrl": "https://madie.cms.gov/Condition/2fbd21f2-aa19-4834-a0a4-537e1c28cc77",
    "resource": {
      "resourceType": "Condition",
      "id": "2fbd21f2-aa19-4834-a0a4-537e1c28cc77",
      "meta": {
        "profile": [ "http://hl7.org/fhir/us/qicore/StructureDefinition/qicore-condition-encounter-diagnosis" ]
      },
      "clinicalStatus": {
        "coding": [ {
          "system": "http://terminology.hl7.org/CodeSystem/condition-clinical",
          "code": "active"
        } ]
      },
      "verificationStatus": {
        "coding": [ {
          "system": "http://terminology.hl7.org/CodeSystem/condition-ver-status",
          "code": "confirmed"
        } ]
      },
      "category": [ {
        "coding": [ {
          "system": "http://terminology.hl7.org/CodeSystem/condition-category",
          "code": "encounter-diagnosis",
          "display": "Encounter Diagnosis"
        } ]
      } ],
      "code": {
        "coding": [ {
          "system": "http://snomed.info/sct",
          "version": "2021-09",
          "code": "111297002",
          "display": "Nonparalytic stroke (disorder)",
          "userSelected": true
        } ]
      },
      "subject": {
        "reference": "Patient/93ddd5ec-1cd5-4894-afbb-65826d86f41e"
      },
      "recordedDate": "2026-10-13T08:00:00.000Z"
    },
    "request": {
      "method": "PUT",
      "url": "Condition/2fbd21f2-aa19-4834-a0a4-537e1c28cc77"
    }
  }, {
    "fullUrl": "https://madie.cms.gov/Organization/90a26c7d-ed24-4a94-8d66-d3645ecd9cd6",
    "resource": {
      "resourceType": "Organization",
      "id": "90a26c7d-ed24-4a94-8d66-d3645ecd9cd6",
      "meta": {
        "profile": [ "http://hl7.org/fhir/us/qicore/StructureDefinition/qicore-organization" ]
      },
      "identifier": [ {
        "use": "temp",
        "system": "urn:oid:2.16.840.1.113883.4.4",
        "value": "21-3259825"
      } ],
      "active": true,
      "type": [ {
        "coding": [ {
          "system": "http://terminology.hl7.org/CodeSystem/organization-type",
          "code": "pay",
          "display": "Payer"
        } ]
      } ],
      "name": "Blue Cross Blue Shield of Texas",
      "telecom": [ {
        "system": "phone",
        "value": "(+1) 972-766-6900"
      } ],
      "address": [ {
        "use": "billing",
        "type": "postal",
        "line": [ "P.O. Box 660044" ],
        "city": "Dallas",
        "state": "TX",
        "postalCode": "75266-0044",
        "country": "USA"
      } ]
    },
    "request": {
      "method": "PUT",
      "url": "Organization/90a26c7d-ed24-4a94-8d66-d3645ecd9cd6"
    }
  }, {
    "fullUrl": "https://madie.cms.gov/Practitioner/7578d74e-2a1e-4ad4-a2ad-04e74a9a257b",
    "resource": {
      "resourceType": "Practitioner",
      "id": "7578d74e-2a1e-4ad4-a2ad-04e74a9a257b",
      "meta": {
        "profile": [ "http://hl7.org/fhir/us/qicore/StructureDefinition/qicore-practitioner" ]
      },
      "identifier": [ {
        "system": "http://hl7.org/fhir/sid/us-npi",
        "value": "9999999896"
      } ],
      "name": [ {
        "family": "Evil",
        "prefix": [ "Dr" ]
      } ]
    },
    "request": {
      "method": "PUT",
      "url": "Practitioner/7578d74e-2a1e-4ad4-a2ad-04e74a9a257b"
    }
  }, {
    "fullUrl": "https://madie.cms.gov/MeasureReport/4184f094-42ca-4132-a6d1-61b5c66f81e0",
    "resource": {
      "resourceType": "MeasureReport",
      "id": "4184f094-42ca-4132-a6d1-61b5c66f81e0",
      "meta": {
        "profile": [ "http://hl7.org/fhir/us/cqfmeasures/StructureDefinition/test-case-cqfm" ]
      },
      "contained": [ {
        "resourceType": "Parameters",
        "id": "b5847c38-09d9-47df-b91b-8a9be4c24320-parameters",
        "parameter": [ {
          "name": "subject",
          "valueString": "93ddd5ec-1cd5-4894-afbb-65826d86f41e"
        } ]
      } ],
      "extension": [ {
        "url": "http://hl7.org/fhir/StructureDefinition/cqf-inputParameters",
        "valueReference": {
          "reference": "#b5847c38-09d9-47df-b91b-8a9be4c24320-parameters"
        }
      }, {
        "url": "http://hl7.org/fhir/us/cqfmeasures/StructureDefinition/cqfm-testCaseDescription",
        "valueMarkdown": "\"Diagnosis = Afib/flutter during encounter\nThis case tests the denominator diagnosis criteria (meets criteria). \"\n"
      } ],
      "modifierExtension": [ {
        "url": "http://hl7.org/fhir/us/cqfmeasures/StructureDefinition/cqfm-isTestCase",
        "valueBoolean": true
      } ],
      "status": "complete",
      "type": "individual",
      "measure": "https://madie.cms.gov/Measure/CMS71FHIRSTKAnticoagAFFlutter",
      "period": {
        "start": "2026-01-01",
        "end": "2026-12-31"
      },
      "group": [ {
        "id": "Group_1",
        "population": [ {
          "id": "InitialPopulation_1",
          "code": {
            "coding": [ {
              "system": "http://terminology.hl7.org/CodeSystem/measure-population",
              "code": "initial-population",
              "display": "Initial Population"
            } ]
          },
          "count": 1
        }, {
          "id": "Denominator_1",
          "code": {
            "coding": [ {
              "system": "http://terminology.hl7.org/CodeSystem/measure-population",
              "code": "denominator",
              "display": "Denominator"
            } ]
          },
          "count": 1
        }, {
          "id": "DenominatorExclusion_1",
          "code": {
            "coding": [ {
              "system": "http://terminology.hl7.org/CodeSystem/measure-population",
              "code": "denominator-exclusion",
              "display": "Denominator Exclusion"
            } ]
          },
          "count": 0
        }, {
          "id": "Numerator_1",
          "code": {
            "coding": [ {
              "system": "http://terminology.hl7.org/CodeSystem/measure-population",
              "code": "numerator",
              "display": "Numerator"
            } ]
          },
          "count": 0
        }, {
          "id": "DenominatorException_1",
          "code": {
            "coding": [ {
              "system": "http://terminology.hl7.org/CodeSystem/measure-population",
              "code": "denominator-exception",
              "display": "Denominator Exception"
            } ]
          },
          "count": 0
        } ],
        "measureScore": {
          "value": 0.0
        }
      } ],
      "evaluatedResource": [ {
        "reference": "Patient/93ddd5ec-1cd5-4894-afbb-65826d86f41e"
      }, {
        "reference": "Condition/ad4011d1-22a4-4420-950a-160b13dc931a"
      }, {
        "reference": "Encounter/df28c0c5-149b-4d32-8a7b-30d1523dcfcd"
      }, {
        "reference": "Claim/db378ecf-9164-40c1-8743-05d7d6e93840"
      }, {
        "reference": "Coverage/5304606b-5030-44c6-86d1-71591785012d"
      }, {
        "reference": "Condition/2fbd21f2-aa19-4834-a0a4-537e1c28cc77"
      }, {
        "reference": "Organization/90a26c7d-ed24-4a94-8d66-d3645ecd9cd6"
      }, {
        "reference": "Practitioner/7578d74e-2a1e-4ad4-a2ad-04e74a9a257b"
      } ]
    },
    "request": {
      "method": "PUT",
      "url": "MeasureReport/4184f094-42ca-4132-a6d1-61b5c66f81e0"
    }
  } ]
}