{
  "resourceType": "Bundle",
  "id": "633c9d030968f8012250fc89",
  "type": "transaction",
  "entry": [ {
    "fullUrl": "https://madie.cms.gov/Patient/93e2d9e6-00b4-4dfc-a404-f0bd5e73fa7b",
    "resource": {
      "resourceType": "Patient",
      "id": "93e2d9e6-00b4-4dfc-a404-f0bd5e73fa7b",
      "meta": {
        "profile": [ "http://hl7.org/fhir/us/qicore/StructureDefinition/qicore-patient" ]
      },
      "text": {
        "status": "generated",
        "div": "<div xmlns=\"http://www.w3.org/1999/xhtml\"><div class=\"hapiHeaderText\">CMOdurEnc_NoEDNoObsBFEncDayOf <b>DENEXPASS </b></div><table class=\"hapiPropertyTable\"><tbody><tr><td>Identifier</td><td>9aa695fb8ef01380aee71e782330c899</td></tr><tr><td>Date of birth</td><td><span>18 September 1985</span></td></tr></tbody></table></div>"
      },
      "extension": [ {
        "url": "http://hl7.org/fhir/us/core/StructureDefinition/us-core-race",
        "extension": [ {
          "url": "ombCategory",
          "valueCoding": {
            "system": "urn:oid:2.16.840.1.113883.6.238",
            "code": "1002-5",
            "display": "American Indian or Alaska Native",
            "userSelected": true
          }
        }, {
          "url": "text",
          "valueString": "American Indian or Alaska Native"
        } ]
      }, {
        "url": "http://hl7.org/fhir/us/core/StructureDefinition/us-core-ethnicity",
        "extension": [ {
          "url": "ombCategory",
          "valueCoding": {
            "system": "urn:oid:2.16.840.1.113883.6.238",
            "code": "2135-2",
            "display": "Hispanic or Latino",
            "userSelected": true
          }
        }, {
          "url": "text",
          "valueString": "Hispanic or Latino"
        } ]
      } ],
      "identifier": [ {
        "type": {
          "coding": [ {
            "system": "http://terminology.hl7.org/CodeSystem/v2-0203",
            "code": "MR"
          } ]
        },
        "system": "https://bonnie-fhir.healthit.gov/",
        "value": "633c9d030968f8012250fc89"
      } ],
      "active": true,
      "name": [ {
        "use": "usual",
        "family": "DENEXPass",
        "given": [ "CMOdurEncNoEDNoObsBFEncDayOf" ]
      } ],
      "gender": "female",
      "birthDate": "1986-09-18"
    },
    "request": {
      "method": "PUT",
      "url": "Patient/93e2d9e6-00b4-4dfc-a404-f0bd5e73fa7b"
    }
  }, {
    "fullUrl": "https://madie.cms.gov/Claim/af6243e0-9f1a-4cda-a006-abd642f02aa7",
    "resource": {
      "resourceType": "Claim",
      "id": "af6243e0-9f1a-4cda-a006-abd642f02aa7",
      "meta": {
        "profile": [ "http://hl7.org/fhir/us/qicore/StructureDefinition/qicore-claim" ]
      },
      "status": "active",
      "type": {
        "coding": [ {
          "system": "http://terminology.hl7.org/CodeSystem/claim-type",
          "code": "institutional"
        } ]
      },
      "use": "claim",
      "patient": {
        "reference": "Patient/93e2d9e6-00b4-4dfc-a404-f0bd5e73fa7b"
      },
      "created": "2026-12-01",
      "provider": {
        "reference": "Practitioner/95ae8a13-dae5-41f5-91c1-61d062cebd52"
      },
      "priority": {
        "coding": [ {
          "system": "http://terminology.hl7.org/CodeSystem/processpriority",
          "code": "normal"
        } ]
      },
      "diagnosis": [ {
        "sequence": 1,
        "diagnosisCodeableConcept": {
          "coding": [ {
            "system": "http://hl7.org/fhir/sid/icd-10-cm",
            "code": "I63.00"
          } ]
        },
        "type": [ {
          "coding": [ {
            "system": "http://terminology.hl7.org/CodeSystem/ex-diagnosistype",
            "code": "principal"
          } ]
        } ]
      } ],
      "insurance": [ {
        "sequence": 1,
        "focal": true,
        "coverage": {
          "reference": "Coverage/5fa041661c76ba66d9959367"
        }
      } ],
      "item": [ {
        "sequence": 1,
        "diagnosisSequence": [ 1 ],
        "productOrService": {
          "coding": [ {
            "system": "http://terminology.hl7.org/CodeSystem/ex-USCLS",
            "code": "99555"
          } ]
        },
        "encounter": [ {
          "reference": "Encounter/c9aa4af2-4e04-418f-a29b-70dcef7609c6"
        } ]
      } ]
    },
    "request": {
      "method": "PUT",
      "url": "Claim/af6243e0-9f1a-4cda-a006-abd642f02aa7"
    }
  }, {
    "fullUrl": "https://madie.cms.gov/Condition/36f12b48-c0f2-44e0-923a-f12901e04a43",
    "resource": {
      "resourceType": "Condition",
      "id": "36f12b48-c0f2-44e0-923a-f12901e04a43",
      "meta": {
        "profile": [ "http://hl7.org/fhir/us/qicore/StructureDefinition/qicore-condition-problems-health-concerns" ]
      },
      "clinicalStatus": {
        "coding": [ {
          "system": "http://terminology.hl7.org/CodeSystem/condition-clinical",
          "code": "inactive"
        } ]
      },
      "verificationStatus": {
        "coding": [ {
          "system": "http://terminology.hl7.org/CodeSystem/condition-ver-status",
          "code": "confirmed"
        } ]
      },
      "category": [ {
        "coding": [ {
          "system": "http://terminology.hl7.org/CodeSystem/condition-category",
          "code": "problem-list-item"
        } ]
      } ],
      "code": {
        "coding": [ {
          "system": "http://hl7.org/fhir/sid/icd-10-cm",
          "code": "I48.20"
        }, {
          "system": "http://hl7.org/fhir/sid/icd-10-cm",
          "code": "I48.0"
        }, {
          "system": "http://snomed.info/sct",
          "code": "5370000"
        } ]
      },
      "subject": {
        "reference": "Patient/93e2d9e6-00b4-4dfc-a404-f0bd5e73fa7b"
      },
      "onsetDateTime": "2026-10-01T09:00:00.000Z",
      "abatementDateTime": "2026-10-12T00:15:00.000Z"
    },
    "request": {
      "method": "PUT",
      "url": "Condition/36f12b48-c0f2-44e0-923a-f12901e04a43"
    }
  }, {
    "fullUrl": "https://madie.cms.gov/Encounter/c9aa4af2-4e04-418f-a29b-70dcef7609c6",
    "resource": {
      "resourceType": "Encounter",
      "id": "c9aa4af2-4e04-418f-a29b-70dcef7609c6",
      "meta": {
        "profile": [ "http://hl7.org/fhir/us/qicore/StructureDefinition/qicore-encounter" ]
      },
      "status": "finished",
      "class": {
        "system": "http://terminology.hl7.org/CodeSystem/v3-ActCode",
        "code": "IMP",
        "display": "inpatient encounter"
      },
      "type": [ {
        "coding": [ {
          "system": "http://snomed.info/sct",
          "code": "32485007"
        } ]
      } ],
      "subject": {
        "reference": "Patient/93e2d9e6-00b4-4dfc-a404-f0bd5e73fa7b"
      },
      "period": {
        "start": "2026-10-01T09:00:00.000Z",
        "end": "2026-10-12T00:15:00.000Z"
      },
      "length": {
        "value": 11,
        "unit": "days"
      },
      "reasonReference": [ {
        "reference": "Condition/36f12b48-c0f2-44e0-923a-f12901e04a43"
      } ]
    },
    "request": {
      "method": "PUT",
      "url": "Encounter/c9aa4af2-4e04-418f-a29b-70dcef7609c6"
    }
  }, {
    "fullUrl": "https://madie.cms.gov/ServiceRequest/e5ee761e-2fef-4da5-955c-0a4bb8913191",
    "resource": {
      "resourceType": "ServiceRequest",
      "id": "e5ee761e-2fef-4da5-955c-0a4bb8913191",
      "meta": {
        "profile": [ "http://hl7.org/fhir/us/qicore/StructureDefinition/qicore-servicerequest" ]
      },
      "status": "active",
      "intent": "order",
      "code": {
        "coding": [ {
          "system": "http://snomed.info/sct",
          "code": "133918004"
        } ]
      },
      "subject": {
        "reference": "Patient/93e2d9e6-00b4-4dfc-a404-f0bd5e73fa7b"
      },
      "authoredOn": "2026-10-01T09:01:00.000Z"
    },
    "request": {
      "method": "PUT",
      "url": "ServiceRequest/e5ee761e-2fef-4da5-955c-0a4bb8913191"
    }
  }, {
    "fullUrl": "https://madie.cms.gov/Coverage/49f2550a-1c7a-4555-97bd-fc4e8a27400e",
    "resource": {
      "resourceType": "Coverage",
      "id": "49f2550a-1c7a-4555-97bd-fc4e8a27400e",
      "status": "active",
      "subscriberId": "523435",
      "beneficiary": {
        "reference": "Patient/93e2d9e6-00b4-4dfc-a404-f0bd5e73fa7b"
      },
      "relationship": {
        "coding": [ {
          "system": "http://terminology.hl7.org/CodeSystem/subscriber-relationship",
          "code": "self"
        } ]
      },
      "period": {
        "start": "1986-09-18T08:00:00.000Z"
      },
      "payor": [ {
        "reference": "Organization/74687428-5d6e-42b8-92d3-cdb37d79b87c"
      } ]
    },
    "request": {
      "method": "PUT",
      "url": "Coverage/49f2550a-1c7a-4555-97bd-fc4e8a27400e"
    }
  }, {
    "fullUrl": "https://madie.cms.gov/Condition/b31d2417-1202-4642-a61d-c6f4a186f98c",
    "resource": {
      "resourceType": "Condition",
      "id": "b31d2417-1202-4642-a61d-c6f4a186f98c",
      "meta": {
        "profile": [ "http://hl7.org/fhir/us/qicore/StructureDefinition/qicore-condition-encounter-diagnosis" ]
      },
      "clinicalStatus": {
        "coding": [ {
          "system": "http://terminology.hl7.org/CodeSystem/condition-clinical",
          "code": "active"
        } ]
      },
      "verificationStatus": {
        "coding": [ {
          "system": "http://terminology.hl7.org/CodeSystem/condition-ver-status",
          "code": "confirmed"
        } ]
      },
      "category": [ {
        "coding": [ {
          "system": "http://terminology.hl7.org/CodeSystem/condition-category",
          "code": "encounter-diagnosis",
          "display": "Encounter Diagnosis"
        } ]
      } ],
      "code": {
        "coding": [ {
          "system": "http://snomed.info/sct",
          "version": "2021-09",
          "code": "111297002",
          "display": "Nonparalytic stroke (disorder)",
          "userSelected": true
        } ]
      },
      "subject": {
        "reference": "Patient/93e2d9e6-00b4-4dfc-a404-f0bd5e73fa7b"
      },
      "recordedDate": "2026-10-13T08:00:00.000Z"
    },
    "request": {
      "method": "PUT",
      "url": "Condition/b31d2417-1202-4642-a61d-c6f4a186f98c"
    }
  }, {
    "fullUrl": "https://madie.cms.gov/Organization/74687428-5d6e-42b8-92d3-cdb37d79b87c",
    "resource": {
      "resourceType": "Organization",
      "id": "74687428-5d6e-42b8-92d3-cdb37d79b87c",
      "meta": {
        "profile": [ "http://hl7.org/fhir/us/qicore/StructureDefinition/qicore-organization" ]
      },
      "identifier": [ {
        "use": "temp",
        "system": "urn:oid:2.16.840.1.113883.4.4",
        "value": "21-3259825"
      } ],
      "active": true,
      "type": [ {
        "coding": [ {
          "system": "http://terminology.hl7.org/CodeSystem/organization-type",
          "code": "pay",
          "display": "Payer"
        } ]
      } ],
      "name": "Blue Cross Blue Shield of Texas",
      "telecom": [ {
        "system": "phone",
        "value": "(+1) 972-766-6900"
      } ],
      "address": [ {
        "use": "billing",
        "type": "postal",
        "line": [ "P.O. Box 660044" ],
        "city": "Dallas",
        "state": "TX",
        "postalCode": "75266-0044",
        "country": "USA"
      } ]
    },
    "request": {
      "method": "PUT",
      "url": "Organization/74687428-5d6e-42b8-92d3-cdb37d79b87c"
    }
  }, {
    "fullUrl": "https://madie.cms.gov/Practitioner/95ae8a13-dae5-41f5-91c1-61d062cebd52",
    "resource": {
      "resourceType": "Practitioner",
      "id": "95ae8a13-dae5-41f5-91c1-61d062cebd52",
      "meta": {
        "profile": [ "http://hl7.org/fhir/us/qicore/StructureDefinition/qicore-practitioner" ]
      },
      "identifier": [ {
        "system": "http://hl7.org/fhir/sid/us-npi",
        "value": "9999999896"
      } ],
      "name": [ {
        "family": "Evil",
        "prefix": [ "Dr" ]
      } ]
    },
    "request": {
      "method": "PUT",
      "url": "Practitioner/95ae8a13-dae5-41f5-91c1-61d062cebd52"
    }
  }, {
    "fullUrl": "https://madie.cms.gov/MeasureReport/3798a6f1-8800-4cd6-9de5-b9aa5b08ad5e",
    "resource": {
      "resourceType": "MeasureReport",
      "id": "3798a6f1-8800-4cd6-9de5-b9aa5b08ad5e",
      "meta": {
        "profile": [ "http://hl7.org/fhir/us/cqfmeasures/StructureDefinition/test-case-cqfm" ]
      },
      "contained": [ {
        "resourceType": "Parameters",
        "id": "7607f44c-5711-4564-b116-e6ca3799a927-parameters",
        "parameter": [ {
          "name": "subject",
          "valueString": "93e2d9e6-00b4-4dfc-a404-f0bd5e73fa7b"
        } ]
      } ],
      "extension": [ {
        "url": "http://hl7.org/fhir/StructureDefinition/cqf-inputParameters",
        "valueReference": {
          "reference": "#7607f44c-5711-4564-b116-e6ca3799a927-parameters"
        }
      }, {
        "url": "http://hl7.org/fhir/us/cqfmeasures/StructureDefinition/cqfm-testCaseDescription",
        "valueMarkdown": "Patient receives CMO during inpatient encounter. No ED. No Obs. Testing day of operator with HospitalizationWithObservation function.\n"
      } ],
      "modifierExtension": [ {
        "url": "http://hl7.org/fhir/us/cqfmeasures/StructureDefinition/cqfm-isTestCase",
        "valueBoolean": true
      } ],
      "status": "complete",
      "type": "individual",
      "measure": "https://madie.cms.gov/Measure/CMS71FHIRSTKAnticoagAFFlutter",
      "period": {
        "start": "2026-01-01",
        "end": "2026-12-31"
      },
      "group": [ {
        "id": "Group_1",
        "population": [ {
          "id": "InitialPopulation_1",
          "code": {
            "coding": [ {
              "system": "http://terminology.hl7.org/CodeSystem/measure-population",
              "code": "initial-population",
              "display": "Initial Population"
            } ]
          },
          "count": 1
        }, {
          "id": "Denominator_1",
          "code": {
            "coding": [ {
              "system": "http://terminology.hl7.org/CodeSystem/measure-population",
              "code": "denominator",
              "display": "Denominator"
            } ]
          },
          "count": 1
        }, {
          "id": "DenominatorExclusion_1",
          "code": {
            "coding": [ {
              "system": "http://terminology.hl7.org/CodeSystem/measure-population",
              "code": "denominator-exclusion",
              "display": "Denominator Exclusion"
            } ]
          },
          "count": 1
        }, {
          "id": "Numerator_1",
          "code": {
            "coding": [ {
              "system": "http://terminology.hl7.org/CodeSystem/measure-population",
              "code": "numerator",
              "display": "Numerator"
            } ]
          },
          "count": 0
        }, {
          "id": "DenominatorException_1",
          "code": {
            "coding": [ {
              "system": "http://terminology.hl7.org/CodeSystem/measure-population",
              "code": "denominator-exception",
              "display": "Denominator Exception"
            } ]
          },
          "count": 0
        } ],
        "measureScore": {
          "value": 0.0
        }
      } ],
      "evaluatedResource": [ {
        "reference": "Patient/93e2d9e6-00b4-4dfc-a404-f0bd5e73fa7b"
      }, {
        "reference": "Claim/af6243e0-9f1a-4cda-a006-abd642f02aa7"
      }, {
        "reference": "Condition/36f12b48-c0f2-44e0-923a-f12901e04a43"
      }, {
        "reference": "Encounter/c9aa4af2-4e04-418f-a29b-70dcef7609c6"
      }, {
        "reference": "ServiceRequest/e5ee761e-2fef-4da5-955c-0a4bb8913191"
      }, {
        "reference": "Coverage/49f2550a-1c7a-4555-97bd-fc4e8a27400e"
      }, {
        "reference": "Condition/b31d2417-1202-4642-a61d-c6f4a186f98c"
      }, {
        "reference": "Organization/74687428-5d6e-42b8-92d3-cdb37d79b87c"
      }, {
        "reference": "Practitioner/95ae8a13-dae5-41f5-91c1-61d062cebd52"
      } ]
    },
    "request": {
      "method": "PUT",
      "url": "MeasureReport/3798a6f1-8800-4cd6-9de5-b9aa5b08ad5e"
    }
  } ]
}