{
  "resourceType": "Bundle",
  "id": "633c9d030968f8012250fc85",
  "type": "transaction",
  "entry": [ {
    "fullUrl": "https://madie.cms.gov/Patient/63e42e45-fb2a-4a44-8354-79ea81b5d041",
    "resource": {
      "resourceType": "Patient",
      "id": "63e42e45-fb2a-4a44-8354-79ea81b5d041",
      "meta": {
        "profile": [ "http://hl7.org/fhir/us/qicore/StructureDefinition/qicore-patient" ]
      },
      "text": {
        "status": "generated",
        "div": "<div xmlns=\"http://www.w3.org/1999/xhtml\"><div class=\"hapiHeaderText\">CMOdurObs_NoEDObs&lt;1hrBFEnc <b>DENEXPASS </b></div><table class=\"hapiPropertyTable\"><tbody><tr><td>Identifier</td><td>78184564d7a2b04b1b82068bb9a7b746</td></tr><tr><td>Date of birth</td><td><span>18 September 1985</span></td></tr></tbody></table></div>"
      },
      "extension": [ {
        "url": "http://hl7.org/fhir/us/core/StructureDefinition/us-core-race",
        "extension": [ {
          "url": "ombCategory",
          "valueCoding": {
            "system": "urn:oid:2.16.840.1.113883.6.238",
            "code": "1002-5",
            "display": "American Indian or Alaska Native",
            "userSelected": true
          }
        }, {
          "url": "text",
          "valueString": "American Indian or Alaska Native"
        } ]
      }, {
        "url": "http://hl7.org/fhir/us/core/StructureDefinition/us-core-ethnicity",
        "extension": [ {
          "url": "ombCategory",
          "valueCoding": {
            "system": "urn:oid:2.16.840.1.113883.6.238",
            "code": "2135-2",
            "display": "Hispanic or Latino",
            "userSelected": true
          }
        }, {
          "url": "text",
          "valueString": "Hispanic or Latino"
        } ]
      } ],
      "identifier": [ {
        "type": {
          "coding": [ {
            "system": "http://terminology.hl7.org/CodeSystem/v2-0203",
            "code": "MR"
          } ]
        },
        "system": "https://bonnie-fhir.healthit.gov/",
        "value": "633c9d030968f8012250fc85"
      } ],
      "active": true,
      "name": [ {
        "use": "usual",
        "family": "DENEXPass",
        "given": [ "CMOdurObs_NoEDObs<1hrBFEnc" ]
      } ],
      "gender": "female",
      "birthDate": "1986-09-18"
    },
    "request": {
      "method": "PUT",
      "url": "Patient/63e42e45-fb2a-4a44-8354-79ea81b5d041"
    }
  }, {
    "fullUrl": "https://madie.cms.gov/Condition/625db23f-03f3-473e-88d8-6ba39b145ec5",
    "resource": {
      "resourceType": "Condition",
      "id": "625db23f-03f3-473e-88d8-6ba39b145ec5",
      "meta": {
        "profile": [ "http://hl7.org/fhir/us/qicore/StructureDefinition/qicore-condition-encounter-diagnosis" ]
      },
      "clinicalStatus": {
        "coding": [ {
          "system": "http://terminology.hl7.org/CodeSystem/condition-clinical",
          "code": "inactive"
        } ]
      },
      "verificationStatus": {
        "coding": [ {
          "system": "http://terminology.hl7.org/CodeSystem/condition-ver-status",
          "code": "confirmed"
        } ]
      },
      "category": [ {
        "coding": [ {
          "system": "http://terminology.hl7.org/CodeSystem/condition-category",
          "code": "encounter-diagnosis",
          "display": "Encounter Diagnosis"
        } ]
      } ],
      "code": {
        "coding": [ {
          "system": "http://hl7.org/fhir/sid/icd-10-cm",
          "code": "I48.20"
        }, {
          "system": "http://hl7.org/fhir/sid/icd-10-cm",
          "code": "I48.0"
        }, {
          "system": "http://snomed.info/sct",
          "code": "5370000"
        } ]
      },
      "subject": {
        "reference": "Patient/63e42e45-fb2a-4a44-8354-79ea81b5d041"
      },
      "onsetDateTime": "2026-10-01T09:00:00.000Z",
      "abatementDateTime": "2026-10-12T00:15:00.000Z"
    },
    "request": {
      "method": "PUT",
      "url": "Condition/625db23f-03f3-473e-88d8-6ba39b145ec5"
    }
  }, {
    "fullUrl": "https://madie.cms.gov/Encounter/5efc79f9-acd9-404b-8220-f1fee36c26e5",
    "resource": {
      "resourceType": "Encounter",
      "id": "5efc79f9-acd9-404b-8220-f1fee36c26e5",
      "meta": {
        "profile": [ "http://hl7.org/fhir/us/qicore/StructureDefinition/qicore-encounter" ]
      },
      "status": "finished",
      "class": {
        "system": "http://terminology.hl7.org/CodeSystem/v3-ActCode",
        "code": "OBSENC",
        "display": "observation encounter"
      },
      "type": [ {
        "coding": [ {
          "system": "http://snomed.info/sct",
          "code": "448951000124107"
        } ]
      } ],
      "subject": {
        "reference": "Patient/63e42e45-fb2a-4a44-8354-79ea81b5d041"
      },
      "period": {
        "start": "2026-10-01T08:00:00.000Z",
        "end": "2026-10-01T08:59:00.000Z"
      },
      "length": {
        "value": 0,
        "unit": "days"
      }
    },
    "request": {
      "method": "PUT",
      "url": "Encounter/5efc79f9-acd9-404b-8220-f1fee36c26e5"
    }
  }, {
    "fullUrl": "https://madie.cms.gov/Encounter/a5ba04a0-ee98-4068-a645-887add09a860",
    "resource": {
      "resourceType": "Encounter",
      "id": "a5ba04a0-ee98-4068-a645-887add09a860",
      "meta": {
        "profile": [ "http://hl7.org/fhir/us/qicore/StructureDefinition/qicore-encounter" ]
      },
      "status": "finished",
      "class": {
        "system": "http://terminology.hl7.org/CodeSystem/v3-ActCode",
        "code": "IMP",
        "display": "inpatient encounter"
      },
      "type": [ {
        "coding": [ {
          "system": "http://snomed.info/sct",
          "code": "32485007"
        } ]
      } ],
      "subject": {
        "reference": "Patient/63e42e45-fb2a-4a44-8354-79ea81b5d041"
      },
      "period": {
        "start": "2026-10-01T09:00:00.000Z",
        "end": "2026-10-12T00:15:00.000Z"
      },
      "length": {
        "value": 11,
        "unit": "days"
      },
      "reasonReference": [ {
        "reference": "Condition/625db23f-03f3-473e-88d8-6ba39b145ec5"
      } ]
    },
    "request": {
      "method": "PUT",
      "url": "Encounter/a5ba04a0-ee98-4068-a645-887add09a860"
    }
  }, {
    "fullUrl": "https://madie.cms.gov/ServiceRequest/4775c476-11c8-40cb-a699-56103cf19bfe",
    "resource": {
      "resourceType": "ServiceRequest",
      "id": "4775c476-11c8-40cb-a699-56103cf19bfe",
      "meta": {
        "profile": [ "http://hl7.org/fhir/us/qicore/StructureDefinition/qicore-servicerequest" ]
      },
      "status": "active",
      "intent": "order",
      "code": {
        "coding": [ {
          "system": "http://snomed.info/sct",
          "code": "133918004"
        } ]
      },
      "subject": {
        "reference": "Patient/63e42e45-fb2a-4a44-8354-79ea81b5d041"
      },
      "authoredOn": "2026-10-01T08:01:00.000Z"
    },
    "request": {
      "method": "PUT",
      "url": "ServiceRequest/4775c476-11c8-40cb-a699-56103cf19bfe"
    }
  }, {
    "fullUrl": "https://madie.cms.gov/Coverage/6d9d42d1-825d-45ca-bdc9-eb4932d6fb2b",
    "resource": {
      "resourceType": "Coverage",
      "id": "6d9d42d1-825d-45ca-bdc9-eb4932d6fb2b",
      "status": "active",
      "subscriberId": "523435",
      "beneficiary": {
        "reference": "Patient/63e42e45-fb2a-4a44-8354-79ea81b5d041"
      },
      "relationship": {
        "coding": [ {
          "system": "http://terminology.hl7.org/CodeSystem/subscriber-relationship",
          "code": "self"
        } ]
      },
      "period": {
        "start": "1986-09-18T08:00:00.000Z"
      },
      "payor": [ {
        "reference": "Organization/db864137-bbdf-4d0b-92ea-127202bccf75"
      } ]
    },
    "request": {
      "method": "PUT",
      "url": "Coverage/6d9d42d1-825d-45ca-bdc9-eb4932d6fb2b"
    }
  }, {
    "fullUrl": "https://madie.cms.gov/Claim/43431db5-4d63-4965-a00b-0ff298704b22",
    "resource": {
      "resourceType": "Claim",
      "id": "43431db5-4d63-4965-a00b-0ff298704b22",
      "meta": {
        "profile": [ "http://hl7.org/fhir/us/qicore/StructureDefinition/qicore-claim" ]
      },
      "status": "active",
      "type": {
        "coding": [ {
          "system": "http://terminology.hl7.org/CodeSystem/claim-type",
          "code": "institutional"
        } ]
      },
      "use": "claim",
      "patient": {
        "reference": "Patient/63e42e45-fb2a-4a44-8354-79ea81b5d041"
      },
      "created": "2026-12-01",
      "provider": {
        "reference": "Practitioner/2e9cf019-36f4-44ef-967d-d7dee11bd1a2"
      },
      "priority": {
        "coding": [ {
          "system": "http://terminology.hl7.org/CodeSystem/processpriority",
          "code": "normal"
        } ]
      },
      "diagnosis": [ {
        "sequence": 1,
        "diagnosisCodeableConcept": {
          "coding": [ {
            "system": "http://hl7.org/fhir/sid/icd-10-cm",
            "code": "I63.00"
          } ]
        },
        "type": [ {
          "coding": [ {
            "system": "http://terminology.hl7.org/CodeSystem/ex-diagnosistype",
            "code": "principal"
          } ]
        } ]
      } ],
      "insurance": [ {
        "sequence": 1,
        "focal": true,
        "coverage": {
          "reference": "Coverage/5fa041661c76ba66d9959367"
        }
      } ],
      "item": [ {
        "sequence": 1,
        "diagnosisSequence": [ 1 ],
        "productOrService": {
          "coding": [ {
            "system": "http://terminology.hl7.org/CodeSystem/ex-USCLS",
            "code": "99555"
          } ]
        },
        "encounter": [ {
          "reference": "Encounter/a5ba04a0-ee98-4068-a645-887add09a860"
        } ]
      } ]
    },
    "request": {
      "method": "PUT",
      "url": "Claim/43431db5-4d63-4965-a00b-0ff298704b22"
    }
  }, {
    "fullUrl": "https://madie.cms.gov/Condition/998bd998-0f26-4b79-9cf0-f86df2b67f1c",
    "resource": {
      "resourceType": "Condition",
      "id": "998bd998-0f26-4b79-9cf0-f86df2b67f1c",
      "meta": {
        "profile": [ "http://hl7.org/fhir/us/qicore/StructureDefinition/qicore-condition-encounter-diagnosis" ]
      },
      "clinicalStatus": {
        "coding": [ {
          "system": "http://terminology.hl7.org/CodeSystem/condition-clinical",
          "code": "active"
        } ]
      },
      "verificationStatus": {
        "coding": [ {
          "system": "http://terminology.hl7.org/CodeSystem/condition-ver-status",
          "code": "confirmed"
        } ]
      },
      "category": [ {
        "coding": [ {
          "system": "http://terminology.hl7.org/CodeSystem/condition-category",
          "code": "encounter-diagnosis",
          "display": "Encounter Diagnosis"
        } ]
      } ],
      "code": {
        "coding": [ {
          "system": "http://snomed.info/sct",
          "version": "2021-09",
          "code": "111297002",
          "display": "Nonparalytic stroke (disorder)",
          "userSelected": true
        } ]
      },
      "subject": {
        "reference": "Patient/63e42e45-fb2a-4a44-8354-79ea81b5d041"
      },
      "recordedDate": "2026-10-13T08:00:00.000Z"
    },
    "request": {
      "method": "PUT",
      "url": "Condition/998bd998-0f26-4b79-9cf0-f86df2b67f1c"
    }
  }, {
    "fullUrl": "https://madie.cms.gov/Organization/db864137-bbdf-4d0b-92ea-127202bccf75",
    "resource": {
      "resourceType": "Organization",
      "id": "db864137-bbdf-4d0b-92ea-127202bccf75",
      "meta": {
        "profile": [ "http://hl7.org/fhir/us/qicore/StructureDefinition/qicore-organization" ]
      },
      "identifier": [ {
        "use": "temp",
        "system": "urn:oid:2.16.840.1.113883.4.4",
        "value": "21-3259825"
      } ],
      "active": true,
      "type": [ {
        "coding": [ {
          "system": "http://terminology.hl7.org/CodeSystem/organization-type",
          "code": "pay",
          "display": "Payer"
        } ]
      } ],
      "name": "Blue Cross Blue Shield of Texas",
      "telecom": [ {
        "system": "phone",
        "value": "(+1) 972-766-6900"
      } ],
      "address": [ {
        "use": "billing",
        "type": "postal",
        "line": [ "P.O. Box 660044" ],
        "city": "Dallas",
        "state": "TX",
        "postalCode": "75266-0044",
        "country": "USA"
      } ]
    },
    "request": {
      "method": "PUT",
      "url": "Organization/db864137-bbdf-4d0b-92ea-127202bccf75"
    }
  }, {
    "fullUrl": "https://madie.cms.gov/Practitioner/2e9cf019-36f4-44ef-967d-d7dee11bd1a2",
    "resource": {
      "resourceType": "Practitioner",
      "id": "2e9cf019-36f4-44ef-967d-d7dee11bd1a2",
      "meta": {
        "profile": [ "http://hl7.org/fhir/us/qicore/StructureDefinition/qicore-practitioner" ]
      },
      "identifier": [ {
        "system": "http://hl7.org/fhir/sid/us-npi",
        "value": "9999999896"
      } ],
      "name": [ {
        "family": "Evil",
        "prefix": [ "Dr" ]
      } ]
    },
    "request": {
      "method": "PUT",
      "url": "Practitioner/2e9cf019-36f4-44ef-967d-d7dee11bd1a2"
    }
  }, {
    "fullUrl": "https://madie.cms.gov/MeasureReport/1bdd971b-ea03-4dbb-8f87-f82fd434bf7a",
    "resource": {
      "resourceType": "MeasureReport",
      "id": "1bdd971b-ea03-4dbb-8f87-f82fd434bf7a",
      "meta": {
        "profile": [ "http://hl7.org/fhir/us/cqfmeasures/StructureDefinition/test-case-cqfm" ]
      },
      "contained": [ {
        "resourceType": "Parameters",
        "id": "07250cfa-99c8-4be8-8fd6-bbb50ab15b09-parameters",
        "parameter": [ {
          "name": "subject",
          "valueString": "63e42e45-fb2a-4a44-8354-79ea81b5d041"
        } ]
      } ],
      "extension": [ {
        "url": "http://hl7.org/fhir/StructureDefinition/cqf-inputParameters",
        "valueReference": {
          "reference": "#07250cfa-99c8-4be8-8fd6-bbb50ab15b09-parameters"
        }
      }, {
        "url": "http://hl7.org/fhir/us/cqfmeasures/StructureDefinition/cqfm-testCaseDescription",
        "valueMarkdown": "Patient receives Observation. No ED Obs starts 1 min before inpatient encounter. Testing HospitalizationWithObservation function.\n"
      } ],
      "modifierExtension": [ {
        "url": "http://hl7.org/fhir/us/cqfmeasures/StructureDefinition/cqfm-isTestCase",
        "valueBoolean": true
      } ],
      "status": "complete",
      "type": "individual",
      "measure": "https://madie.cms.gov/Measure/CMS71FHIRSTKAnticoagAFFlutter",
      "period": {
        "start": "2026-01-01",
        "end": "2026-12-31"
      },
      "group": [ {
        "id": "Group_1",
        "population": [ {
          "id": "InitialPopulation_1",
          "code": {
            "coding": [ {
              "system": "http://terminology.hl7.org/CodeSystem/measure-population",
              "code": "initial-population",
              "display": "Initial Population"
            } ]
          },
          "count": 1
        }, {
          "id": "Denominator_1",
          "code": {
            "coding": [ {
              "system": "http://terminology.hl7.org/CodeSystem/measure-population",
              "code": "denominator",
              "display": "Denominator"
            } ]
          },
          "count": 1
        }, {
          "id": "DenominatorExclusion_1",
          "code": {
            "coding": [ {
              "system": "http://terminology.hl7.org/CodeSystem/measure-population",
              "code": "denominator-exclusion",
              "display": "Denominator Exclusion"
            } ]
          },
          "count": 1
        }, {
          "id": "Numerator_1",
          "code": {
            "coding": [ {
              "system": "http://terminology.hl7.org/CodeSystem/measure-population",
              "code": "numerator",
              "display": "Numerator"
            } ]
          },
          "count": 0
        }, {
          "id": "DenominatorException_1",
          "code": {
            "coding": [ {
              "system": "http://terminology.hl7.org/CodeSystem/measure-population",
              "code": "denominator-exception",
              "display": "Denominator Exception"
            } ]
          },
          "count": 0
        } ],
        "measureScore": {
          "value": 0.0
        }
      } ],
      "evaluatedResource": [ {
        "reference": "Patient/63e42e45-fb2a-4a44-8354-79ea81b5d041"
      }, {
        "reference": "Condition/625db23f-03f3-473e-88d8-6ba39b145ec5"
      }, {
        "reference": "Encounter/5efc79f9-acd9-404b-8220-f1fee36c26e5"
      }, {
        "reference": "Encounter/a5ba04a0-ee98-4068-a645-887add09a860"
      }, {
        "reference": "ServiceRequest/4775c476-11c8-40cb-a699-56103cf19bfe"
      }, {
        "reference": "Coverage/6d9d42d1-825d-45ca-bdc9-eb4932d6fb2b"
      }, {
        "reference": "Claim/43431db5-4d63-4965-a00b-0ff298704b22"
      }, {
        "reference": "Condition/998bd998-0f26-4b79-9cf0-f86df2b67f1c"
      }, {
        "reference": "Organization/db864137-bbdf-4d0b-92ea-127202bccf75"
      }, {
        "reference": "Practitioner/2e9cf019-36f4-44ef-967d-d7dee11bd1a2"
      } ]
    },
    "request": {
      "method": "PUT",
      "url": "MeasureReport/1bdd971b-ea03-4dbb-8f87-f82fd434bf7a"
    }
  } ]
}