{
  "resourceType": "Bundle",
  "id": "633c9d040968f8012250fcb1",
  "type": "transaction",
  "entry": [ {
    "fullUrl": "https://madie.cms.gov/Patient/5370c25e-ca3c-4575-95c2-e23c783ff4c6",
    "resource": {
      "resourceType": "Patient",
      "id": "5370c25e-ca3c-4575-95c2-e23c783ff4c6",
      "meta": {
        "profile": [ "http://hl7.org/fhir/us/qicore/StructureDefinition/qicore-patient" ]
      },
      "text": {
        "status": "generated",
        "div": "<div xmlns=\"http://www.w3.org/1999/xhtml\"><div class=\"hapiHeaderText\">ProcAtrialAblB4EncRelePer <b>DENOMPASS </b></div><table class=\"hapiPropertyTable\"><tbody><tr><td>Identifier</td><td>1ebc7a8ec0c65913b7018969c7b50ead</td></tr><tr><td>Date of birth</td><td><span>01 December 1960</span></td></tr></tbody></table></div>"
      },
      "extension": [ {
        "url": "http://hl7.org/fhir/us/core/StructureDefinition/us-core-race",
        "extension": [ {
          "url": "ombCategory",
          "valueCoding": {
            "system": "urn:oid:2.16.840.1.113883.6.238",
            "code": "1002-5",
            "display": "American Indian or Alaska Native",
            "userSelected": true
          }
        }, {
          "url": "text",
          "valueString": "American Indian or Alaska Native"
        } ]
      }, {
        "url": "http://hl7.org/fhir/us/core/StructureDefinition/us-core-ethnicity",
        "extension": [ {
          "url": "ombCategory",
          "valueCoding": {
            "system": "urn:oid:2.16.840.1.113883.6.238",
            "code": "2135-2",
            "display": "Hispanic or Latino",
            "userSelected": true
          }
        }, {
          "url": "text",
          "valueString": "Hispanic or Latino"
        } ]
      } ],
      "identifier": [ {
        "type": {
          "coding": [ {
            "system": "http://terminology.hl7.org/CodeSystem/v2-0203",
            "code": "MR"
          } ]
        },
        "system": "https://bonnie-fhir.healthit.gov/",
        "value": "633c9d040968f8012250fcb1"
      } ],
      "active": true,
      "name": [ {
        "use": "usual",
        "family": "DENOMPass",
        "given": [ "ProcAtrialAblB4EncRelePer" ]
      } ],
      "gender": "male",
      "birthDate": "1961-12-01"
    },
    "request": {
      "method": "PUT",
      "url": "Patient/5370c25e-ca3c-4575-95c2-e23c783ff4c6"
    }
  }, {
    "fullUrl": "https://madie.cms.gov/Encounter/29de3440-0759-42ba-a4a8-4a9a3cadb6c7",
    "resource": {
      "resourceType": "Encounter",
      "id": "29de3440-0759-42ba-a4a8-4a9a3cadb6c7",
      "meta": {
        "profile": [ "http://hl7.org/fhir/us/qicore/StructureDefinition/qicore-encounter" ]
      },
      "status": "finished",
      "class": {
        "system": "http://terminology.hl7.org/CodeSystem/v3-ActCode",
        "code": "IMP",
        "display": "inpatient encounter"
      },
      "type": [ {
        "coding": [ {
          "system": "http://snomed.info/sct",
          "code": "32485007"
        } ]
      } ],
      "subject": {
        "reference": "Patient/5370c25e-ca3c-4575-95c2-e23c783ff4c6"
      },
      "period": {
        "start": "2026-02-08T08:00:00.000Z",
        "end": "2026-02-10T08:15:00.000Z"
      },
      "length": {
        "value": 2,
        "unit": "days"
      },
      "reasonReference": [ {
        "reference": "Condition/ce31bb89-cb05-4d13-b9b4-59eb6ac72c52"
      } ]
    },
    "request": {
      "method": "PUT",
      "url": "Encounter/29de3440-0759-42ba-a4a8-4a9a3cadb6c7"
    }
  }, {
    "fullUrl": "https://madie.cms.gov/Claim/e560a03c-0193-44e1-a1b1-3f6ab6039da3",
    "resource": {
      "resourceType": "Claim",
      "id": "e560a03c-0193-44e1-a1b1-3f6ab6039da3",
      "meta": {
        "profile": [ "http://hl7.org/fhir/us/qicore/StructureDefinition/qicore-claim" ]
      },
      "status": "active",
      "type": {
        "coding": [ {
          "system": "http://terminology.hl7.org/CodeSystem/claim-type",
          "code": "institutional"
        } ]
      },
      "use": "claim",
      "patient": {
        "reference": "Patient/5370c25e-ca3c-4575-95c2-e23c783ff4c6"
      },
      "created": "2026-12-01",
      "provider": {
        "reference": "Practitioner/7cbf1e53-76e9-438f-a6c1-0e02a90815b9"
      },
      "priority": {
        "coding": [ {
          "system": "http://terminology.hl7.org/CodeSystem/processpriority",
          "code": "normal"
        } ]
      },
      "diagnosis": [ {
        "sequence": 1,
        "diagnosisCodeableConcept": {
          "coding": [ {
            "system": "http://hl7.org/fhir/sid/icd-10-cm",
            "code": "I63.00"
          } ]
        },
        "type": [ {
          "coding": [ {
            "system": "http://terminology.hl7.org/CodeSystem/ex-diagnosistype",
            "code": "principal"
          } ]
        } ]
      } ],
      "insurance": [ {
        "sequence": 1,
        "focal": true,
        "coverage": {
          "reference": "Coverage/5fa041661c76ba66d9959367"
        }
      } ],
      "item": [ {
        "sequence": 1,
        "diagnosisSequence": [ 1 ],
        "productOrService": {
          "coding": [ {
            "system": "http://terminology.hl7.org/CodeSystem/ex-USCLS",
            "code": "99555"
          } ]
        },
        "encounter": [ {
          "reference": "Encounter/29de3440-0759-42ba-a4a8-4a9a3cadb6c7"
        } ]
      } ]
    },
    "request": {
      "method": "PUT",
      "url": "Claim/e560a03c-0193-44e1-a1b1-3f6ab6039da3"
    }
  }, {
    "fullUrl": "https://madie.cms.gov/Coverage/50510986-a7a0-4304-8d05-c22ecda11567",
    "resource": {
      "resourceType": "Coverage",
      "id": "50510986-a7a0-4304-8d05-c22ecda11567",
      "meta": {
        "profile": [ "http://hl7.org/fhir/us/qicore/StructureDefinition/qicore-coverage" ]
      },
      "status": "active",
      "subscriberId": "523435",
      "beneficiary": {
        "reference": "Patient/5370c25e-ca3c-4575-95c2-e23c783ff4c6"
      },
      "relationship": {
        "coding": [ {
          "system": "http://terminology.hl7.org/CodeSystem/subscriber-relationship",
          "code": "self"
        } ]
      },
      "payor": [ {
        "reference": "Organization/f5abe7d3-1026-43a1-ab20-5c1fd59750a0"
      } ]
    },
    "request": {
      "method": "PUT",
      "url": "Coverage/50510986-a7a0-4304-8d05-c22ecda11567"
    }
  }, {
    "fullUrl": "https://madie.cms.gov/Procedure/13ba8cc5-a37c-48f3-9257-f86d24d009cc",
    "resource": {
      "resourceType": "Procedure",
      "id": "13ba8cc5-a37c-48f3-9257-f86d24d009cc",
      "meta": {
        "profile": [ "http://hl7.org/fhir/us/qicore/StructureDefinition/qicore-procedure" ]
      },
      "extension": [ {
        "url": "http://hl7.org/fhir/us/qicore/StructureDefinition/qicore-recorded",
        "valueDateTime": "2026-11-19T13:35:00.000Z"
      } ],
      "status": "completed",
      "code": {
        "coding": [ {
          "system": "http://www.cms.gov/Medicare/Coding/ICD10",
          "code": "02560ZZ"
        }, {
          "system": "http://snomed.info/sct",
          "code": "175095005"
        } ]
      },
      "subject": {
        "reference": "Patient/5370c25e-ca3c-4575-95c2-e23c783ff4c6"
      },
      "performedPeriod": {
        "start": "2026-02-08T07:59:00.000Z",
        "end": "2026-02-10T08:15:00.000Z"
      }
    },
    "request": {
      "method": "PUT",
      "url": "Procedure/13ba8cc5-a37c-48f3-9257-f86d24d009cc"
    }
  }, {
    "fullUrl": "https://madie.cms.gov/Condition/ce31bb89-cb05-4d13-b9b4-59eb6ac72c52",
    "resource": {
      "resourceType": "Condition",
      "id": "ce31bb89-cb05-4d13-b9b4-59eb6ac72c52",
      "meta": {
        "profile": [ "http://hl7.org/fhir/us/qicore/StructureDefinition/qicore-condition-encounter-diagnosis" ]
      },
      "clinicalStatus": {
        "coding": [ {
          "system": "http://terminology.hl7.org/CodeSystem/condition-clinical",
          "code": "active"
        } ]
      },
      "verificationStatus": {
        "coding": [ {
          "system": "http://terminology.hl7.org/CodeSystem/condition-ver-status",
          "code": "confirmed"
        } ]
      },
      "category": [ {
        "coding": [ {
          "system": "http://terminology.hl7.org/CodeSystem/condition-category",
          "code": "encounter-diagnosis",
          "display": "Encounter Diagnosis"
        } ]
      } ],
      "code": {
        "coding": [ {
          "system": "http://snomed.info/sct",
          "version": "2021-09",
          "code": "111297002",
          "display": "Nonparalytic stroke (disorder)",
          "userSelected": true
        } ]
      },
      "subject": {
        "reference": "Patient/5370c25e-ca3c-4575-95c2-e23c783ff4c6"
      },
      "recordedDate": "2026-10-13T08:00:00.000Z"
    },
    "request": {
      "method": "PUT",
      "url": "Condition/ce31bb89-cb05-4d13-b9b4-59eb6ac72c52"
    }
  }, {
    "fullUrl": "https://madie.cms.gov/Organization/f5abe7d3-1026-43a1-ab20-5c1fd59750a0",
    "resource": {
      "resourceType": "Organization",
      "id": "f5abe7d3-1026-43a1-ab20-5c1fd59750a0",
      "meta": {
        "profile": [ "http://hl7.org/fhir/us/qicore/StructureDefinition/qicore-organization" ]
      },
      "identifier": [ {
        "use": "temp",
        "system": "urn:oid:2.16.840.1.113883.4.4",
        "value": "21-3259825"
      } ],
      "active": true,
      "type": [ {
        "coding": [ {
          "system": "http://terminology.hl7.org/CodeSystem/organization-type",
          "code": "pay",
          "display": "Payer"
        } ]
      } ],
      "name": "Blue Cross Blue Shield of Texas",
      "telecom": [ {
        "system": "phone",
        "value": "(+1) 972-766-6900"
      } ],
      "address": [ {
        "use": "billing",
        "type": "postal",
        "line": [ "P.O. Box 660044" ],
        "city": "Dallas",
        "state": "TX",
        "postalCode": "75266-0044",
        "country": "USA"
      } ]
    },
    "request": {
      "method": "PUT",
      "url": "Organization/f5abe7d3-1026-43a1-ab20-5c1fd59750a0"
    }
  }, {
    "fullUrl": "https://madie.cms.gov/Practitioner/7cbf1e53-76e9-438f-a6c1-0e02a90815b9",
    "resource": {
      "resourceType": "Practitioner",
      "id": "7cbf1e53-76e9-438f-a6c1-0e02a90815b9",
      "meta": {
        "profile": [ "http://hl7.org/fhir/us/qicore/StructureDefinition/qicore-practitioner" ]
      },
      "identifier": [ {
        "system": "http://hl7.org/fhir/sid/us-npi",
        "value": "9999999896"
      } ],
      "name": [ {
        "family": "Evil",
        "prefix": [ "Dr" ]
      } ]
    },
    "request": {
      "method": "PUT",
      "url": "Practitioner/7cbf1e53-76e9-438f-a6c1-0e02a90815b9"
    }
  }, {
    "fullUrl": "https://madie.cms.gov/MeasureReport/dc6102a8-3fa2-4de2-8849-5bc0fd75b055",
    "resource": {
      "resourceType": "MeasureReport",
      "id": "dc6102a8-3fa2-4de2-8849-5bc0fd75b055",
      "meta": {
        "profile": [ "http://hl7.org/fhir/us/cqfmeasures/StructureDefinition/test-case-cqfm" ]
      },
      "contained": [ {
        "resourceType": "Parameters",
        "id": "f830d3f3-2df4-496b-b634-a21229e32a79-parameters",
        "parameter": [ {
          "name": "subject",
          "valueString": "5370c25e-ca3c-4575-95c2-e23c783ff4c6"
        } ]
      } ],
      "extension": [ {
        "url": "http://hl7.org/fhir/StructureDefinition/cqf-inputParameters",
        "valueReference": {
          "reference": "#f830d3f3-2df4-496b-b634-a21229e32a79-parameters"
        }
      }, {
        "url": "http://hl7.org/fhir/us/cqfmeasures/StructureDefinition/cqfm-testCaseDescription",
        "valueMarkdown": "Proc performed Atrial Ablation starts before start of OccA by 1 minutes\n"
      } ],
      "modifierExtension": [ {
        "url": "http://hl7.org/fhir/us/cqfmeasures/StructureDefinition/cqfm-isTestCase",
        "valueBoolean": true
      } ],
      "status": "complete",
      "type": "individual",
      "measure": "https://madie.cms.gov/Measure/CMS71FHIRSTKAnticoagAFFlutter",
      "period": {
        "start": "2026-01-01",
        "end": "2026-12-31"
      },
      "group": [ {
        "id": "Group_1",
        "population": [ {
          "id": "InitialPopulation_1",
          "code": {
            "coding": [ {
              "system": "http://terminology.hl7.org/CodeSystem/measure-population",
              "code": "initial-population",
              "display": "Initial Population"
            } ]
          },
          "count": 1
        }, {
          "id": "Denominator_1",
          "code": {
            "coding": [ {
              "system": "http://terminology.hl7.org/CodeSystem/measure-population",
              "code": "denominator",
              "display": "Denominator"
            } ]
          },
          "count": 1
        }, {
          "id": "DenominatorExclusion_1",
          "code": {
            "coding": [ {
              "system": "http://terminology.hl7.org/CodeSystem/measure-population",
              "code": "denominator-exclusion",
              "display": "Denominator Exclusion"
            } ]
          },
          "count": 0
        }, {
          "id": "Numerator_1",
          "code": {
            "coding": [ {
              "system": "http://terminology.hl7.org/CodeSystem/measure-population",
              "code": "numerator",
              "display": "Numerator"
            } ]
          },
          "count": 0
        }, {
          "id": "DenominatorException_1",
          "code": {
            "coding": [ {
              "system": "http://terminology.hl7.org/CodeSystem/measure-population",
              "code": "denominator-exception",
              "display": "Denominator Exception"
            } ]
          },
          "count": 0
        } ],
        "measureScore": {
          "value": 0.0
        }
      } ],
      "evaluatedResource": [ {
        "reference": "Patient/5370c25e-ca3c-4575-95c2-e23c783ff4c6"
      }, {
        "reference": "Encounter/29de3440-0759-42ba-a4a8-4a9a3cadb6c7"
      }, {
        "reference": "Claim/e560a03c-0193-44e1-a1b1-3f6ab6039da3"
      }, {
        "reference": "Coverage/50510986-a7a0-4304-8d05-c22ecda11567"
      }, {
        "reference": "Procedure/13ba8cc5-a37c-48f3-9257-f86d24d009cc"
      }, {
        "reference": "Condition/ce31bb89-cb05-4d13-b9b4-59eb6ac72c52"
      }, {
        "reference": "Organization/f5abe7d3-1026-43a1-ab20-5c1fd59750a0"
      }, {
        "reference": "Practitioner/7cbf1e53-76e9-438f-a6c1-0e02a90815b9"
      } ]
    },
    "request": {
      "method": "PUT",
      "url": "MeasureReport/dc6102a8-3fa2-4de2-8849-5bc0fd75b055"
    }
  } ]
}