{
  "resourceType": "Bundle",
  "id": "633c9d020968f8012250fc69",
  "type": "transaction",
  "entry": [ {
    "fullUrl": "https://madie.cms.gov/Patient/f0d3eb0e-a93c-4caf-8233-499a105906de",
    "resource": {
      "resourceType": "Patient",
      "id": "f0d3eb0e-a93c-4caf-8233-499a105906de",
      "meta": {
        "profile": [ "http://hl7.org/fhir/us/qicore/StructureDefinition/qicore-patient" ]
      },
      "text": {
        "status": "generated",
        "div": "<div xmlns=\"http://www.w3.org/1999/xhtml\"><div class=\"hapiHeaderText\">DischargeFacilityHospice <b>DENEXPASS </b></div><table class=\"hapiPropertyTable\"><tbody><tr><td>Identifier</td><td>86442f6b546c921f8332256ec26a4c93</td></tr><tr><td>Date of birth</td><td><span>31 July 1969</span></td></tr></tbody></table></div>"
      },
      "extension": [ {
        "url": "http://hl7.org/fhir/us/core/StructureDefinition/us-core-race",
        "extension": [ {
          "url": "ombCategory",
          "valueCoding": {
            "system": "urn:oid:2.16.840.1.113883.6.238",
            "code": "1002-5",
            "display": "American Indian or Alaska Native",
            "userSelected": true
          }
        }, {
          "url": "text",
          "valueString": "American Indian or Alaska Native"
        } ]
      }, {
        "url": "http://hl7.org/fhir/us/core/StructureDefinition/us-core-ethnicity",
        "extension": [ {
          "url": "ombCategory",
          "valueCoding": {
            "system": "urn:oid:2.16.840.1.113883.6.238",
            "code": "2135-2",
            "display": "Hispanic or Latino",
            "userSelected": true
          }
        }, {
          "url": "text",
          "valueString": "Hispanic or Latino"
        } ]
      } ],
      "identifier": [ {
        "type": {
          "coding": [ {
            "system": "http://terminology.hl7.org/CodeSystem/v2-0203",
            "code": "MR"
          } ]
        },
        "system": "https://bonnie-fhir.healthit.gov/",
        "value": "633c9d020968f8012250fc69"
      } ],
      "active": true,
      "name": [ {
        "use": "usual",
        "family": "DENEXPass",
        "given": [ "DischargeFacilityHospice" ]
      } ],
      "gender": "male",
      "birthDate": "1970-07-31"
    },
    "request": {
      "method": "PUT",
      "url": "Patient/f0d3eb0e-a93c-4caf-8233-499a105906de"
    }
  }, {
    "fullUrl": "https://madie.cms.gov/Encounter/4f28c46a-dc98-4d6b-8f0f-4a319839cb8a",
    "resource": {
      "resourceType": "Encounter",
      "id": "4f28c46a-dc98-4d6b-8f0f-4a319839cb8a",
      "meta": {
        "profile": [ "http://hl7.org/fhir/us/qicore/StructureDefinition/qicore-encounter" ]
      },
      "status": "finished",
      "class": {
        "system": "http://terminology.hl7.org/CodeSystem/v3-ActCode",
        "code": "IMP",
        "display": "inpatient encounter"
      },
      "type": [ {
        "coding": [ {
          "system": "http://snomed.info/sct",
          "code": "32485007"
        } ]
      } ],
      "subject": {
        "reference": "Patient/f0d3eb0e-a93c-4caf-8233-499a105906de"
      },
      "period": {
        "start": "2026-11-20T08:00:00.000Z",
        "end": "2026-11-24T08:15:00.000Z"
      },
      "length": {
        "value": 4,
        "unit": "days"
      },
      "hospitalization": {
        "dischargeDisposition": {
          "coding": [ {
            "system": "http://snomed.info/sct",
            "code": "428371000124100",
            "display": "Discharged to Health Care Facility for Hospice Care"
          } ]
        }
      }
    },
    "request": {
      "method": "PUT",
      "url": "Encounter/4f28c46a-dc98-4d6b-8f0f-4a319839cb8a"
    }
  }, {
    "fullUrl": "https://madie.cms.gov/Claim/56993ee2-0d0d-432d-888d-0fa81793a858",
    "resource": {
      "resourceType": "Claim",
      "id": "56993ee2-0d0d-432d-888d-0fa81793a858",
      "meta": {
        "profile": [ "http://hl7.org/fhir/us/qicore/StructureDefinition/qicore-claim" ]
      },
      "status": "active",
      "type": {
        "coding": [ {
          "system": "http://terminology.hl7.org/CodeSystem/claim-type",
          "code": "institutional"
        } ]
      },
      "use": "claim",
      "patient": {
        "reference": "Patient/f0d3eb0e-a93c-4caf-8233-499a105906de"
      },
      "created": "2026-12-01",
      "provider": {
        "reference": "Practitioner/76c82867-1c8e-41cc-b638-4ab73f242b52"
      },
      "priority": {
        "coding": [ {
          "system": "http://terminology.hl7.org/CodeSystem/processpriority",
          "code": "normal"
        } ]
      },
      "diagnosis": [ {
        "sequence": 1,
        "diagnosisCodeableConcept": {
          "coding": [ {
            "system": "http://hl7.org/fhir/sid/icd-10-cm",
            "code": "I63.00"
          } ]
        },
        "type": [ {
          "coding": [ {
            "system": "http://terminology.hl7.org/CodeSystem/ex-diagnosistype",
            "code": "principal"
          } ]
        } ]
      } ],
      "insurance": [ {
        "sequence": 1,
        "focal": true,
        "coverage": {
          "reference": "Coverage/5fa041661c76ba66d9959367"
        }
      } ],
      "item": [ {
        "sequence": 1,
        "diagnosisSequence": [ 1 ],
        "productOrService": {
          "coding": [ {
            "system": "http://terminology.hl7.org/CodeSystem/ex-USCLS",
            "code": "99555"
          } ]
        },
        "encounter": [ {
          "reference": "Encounter/4f28c46a-dc98-4d6b-8f0f-4a319839cb8a"
        } ]
      } ]
    },
    "request": {
      "method": "PUT",
      "url": "Claim/56993ee2-0d0d-432d-888d-0fa81793a858"
    }
  }, {
    "fullUrl": "https://madie.cms.gov/Coverage/dfcb324c-4a3f-442a-8890-a7335c15b237",
    "resource": {
      "resourceType": "Coverage",
      "id": "dfcb324c-4a3f-442a-8890-a7335c15b237",
      "meta": {
        "profile": [ "http://hl7.org/fhir/us/qicore/StructureDefinition/qicore-coverage" ]
      },
      "status": "active",
      "subscriberId": "523435",
      "beneficiary": {
        "reference": "Patient/f0d3eb0e-a93c-4caf-8233-499a105906de"
      },
      "relationship": {
        "coding": [ {
          "system": "http://terminology.hl7.org/CodeSystem/subscriber-relationship",
          "code": "self"
        } ]
      },
      "payor": [ {
        "reference": "Organization/839bb1bc-ab4f-42d7-80f1-2a4b392a3e2d"
      } ]
    },
    "request": {
      "method": "PUT",
      "url": "Coverage/dfcb324c-4a3f-442a-8890-a7335c15b237"
    }
  }, {
    "fullUrl": "https://madie.cms.gov/Procedure/2056e9f2-8c4d-480c-a36a-012f603ad3be",
    "resource": {
      "resourceType": "Procedure",
      "id": "2056e9f2-8c4d-480c-a36a-012f603ad3be",
      "meta": {
        "profile": [ "http://hl7.org/fhir/us/qicore/StructureDefinition/qicore-procedure" ]
      },
      "extension": [ {
        "url": "http://hl7.org/fhir/us/qicore/StructureDefinition/qicore-recorded",
        "valueDateTime": "2026-11-19T13:35:00.000Z"
      } ],
      "status": "completed",
      "code": {
        "coding": [ {
          "system": "http://www.cms.gov/Medicare/Coding/ICD10",
          "code": "02560ZZ"
        }, {
          "system": "http://snomed.info/sct",
          "code": "175095005"
        } ]
      },
      "subject": {
        "reference": "Patient/f0d3eb0e-a93c-4caf-8233-499a105906de"
      },
      "performedPeriod": {
        "start": "2026-11-19T08:00:00.000Z",
        "end": "2026-11-20T08:15:00.000Z"
      }
    },
    "request": {
      "method": "PUT",
      "url": "Procedure/2056e9f2-8c4d-480c-a36a-012f603ad3be"
    }
  }, {
    "fullUrl": "https://madie.cms.gov/Condition/715d53f4-6c02-48ba-a798-c5b36c8430da",
    "resource": {
      "resourceType": "Condition",
      "id": "715d53f4-6c02-48ba-a798-c5b36c8430da",
      "meta": {
        "profile": [ "http://hl7.org/fhir/us/qicore/StructureDefinition/qicore-condition-encounter-diagnosis" ]
      },
      "clinicalStatus": {
        "coding": [ {
          "system": "http://terminology.hl7.org/CodeSystem/condition-clinical",
          "code": "active"
        } ]
      },
      "verificationStatus": {
        "coding": [ {
          "system": "http://terminology.hl7.org/CodeSystem/condition-ver-status",
          "code": "confirmed"
        } ]
      },
      "category": [ {
        "coding": [ {
          "system": "http://terminology.hl7.org/CodeSystem/condition-category",
          "code": "encounter-diagnosis",
          "display": "Encounter Diagnosis"
        } ]
      } ],
      "code": {
        "coding": [ {
          "system": "http://snomed.info/sct",
          "version": "2021-09",
          "code": "111297002",
          "display": "Nonparalytic stroke (disorder)",
          "userSelected": true
        } ]
      },
      "subject": {
        "reference": "Patient/f0d3eb0e-a93c-4caf-8233-499a105906de"
      },
      "recordedDate": "2026-10-13T08:00:00.000Z"
    },
    "request": {
      "method": "PUT",
      "url": "Condition/715d53f4-6c02-48ba-a798-c5b36c8430da"
    }
  }, {
    "fullUrl": "https://madie.cms.gov/Organization/839bb1bc-ab4f-42d7-80f1-2a4b392a3e2d",
    "resource": {
      "resourceType": "Organization",
      "id": "839bb1bc-ab4f-42d7-80f1-2a4b392a3e2d",
      "meta": {
        "profile": [ "http://hl7.org/fhir/us/qicore/StructureDefinition/qicore-organization" ]
      },
      "identifier": [ {
        "use": "temp",
        "system": "urn:oid:2.16.840.1.113883.4.4",
        "value": "21-3259825"
      } ],
      "active": true,
      "type": [ {
        "coding": [ {
          "system": "http://terminology.hl7.org/CodeSystem/organization-type",
          "code": "pay",
          "display": "Payer"
        } ]
      } ],
      "name": "Blue Cross Blue Shield of Texas",
      "telecom": [ {
        "system": "phone",
        "value": "(+1) 972-766-6900"
      } ],
      "address": [ {
        "use": "billing",
        "type": "postal",
        "line": [ "P.O. Box 660044" ],
        "city": "Dallas",
        "state": "TX",
        "postalCode": "75266-0044",
        "country": "USA"
      } ]
    },
    "request": {
      "method": "PUT",
      "url": "Organization/839bb1bc-ab4f-42d7-80f1-2a4b392a3e2d"
    }
  }, {
    "fullUrl": "https://madie.cms.gov/Practitioner/76c82867-1c8e-41cc-b638-4ab73f242b52",
    "resource": {
      "resourceType": "Practitioner",
      "id": "76c82867-1c8e-41cc-b638-4ab73f242b52",
      "meta": {
        "profile": [ "http://hl7.org/fhir/us/qicore/StructureDefinition/qicore-practitioner" ]
      },
      "identifier": [ {
        "system": "http://hl7.org/fhir/sid/us-npi",
        "value": "9999999896"
      } ],
      "name": [ {
        "family": "Evil",
        "prefix": [ "Dr" ]
      } ]
    },
    "request": {
      "method": "PUT",
      "url": "Practitioner/76c82867-1c8e-41cc-b638-4ab73f242b52"
    }
  }, {
    "fullUrl": "https://madie.cms.gov/MeasureReport/00be0ce3-8db4-4acd-b4ee-b20abb530c0c",
    "resource": {
      "resourceType": "MeasureReport",
      "id": "00be0ce3-8db4-4acd-b4ee-b20abb530c0c",
      "meta": {
        "profile": [ "http://hl7.org/fhir/us/cqfmeasures/StructureDefinition/test-case-cqfm" ]
      },
      "contained": [ {
        "resourceType": "Parameters",
        "id": "c05a4adb-82dc-4c30-aef6-b893cc4029da-parameters",
        "parameter": [ {
          "name": "subject",
          "valueString": "f0d3eb0e-a93c-4caf-8233-499a105906de"
        } ]
      } ],
      "extension": [ {
        "url": "http://hl7.org/fhir/StructureDefinition/cqf-inputParameters",
        "valueReference": {
          "reference": "#c05a4adb-82dc-4c30-aef6-b893cc4029da-parameters"
        }
      }, {
        "url": "http://hl7.org/fhir/us/cqfmeasures/StructureDefinition/cqfm-testCaseDescription",
        "valueMarkdown": "Discharge to health care facility for hospice.\n"
      } ],
      "modifierExtension": [ {
        "url": "http://hl7.org/fhir/us/cqfmeasures/StructureDefinition/cqfm-isTestCase",
        "valueBoolean": true
      } ],
      "status": "complete",
      "type": "individual",
      "measure": "https://madie.cms.gov/Measure/CMS71FHIRSTKAnticoagAFFlutter",
      "period": {
        "start": "2026-01-01",
        "end": "2026-12-31"
      },
      "group": [ {
        "id": "Group_1",
        "population": [ {
          "id": "InitialPopulation_1",
          "code": {
            "coding": [ {
              "system": "http://terminology.hl7.org/CodeSystem/measure-population",
              "code": "initial-population",
              "display": "Initial Population"
            } ]
          },
          "count": 1
        }, {
          "id": "Denominator_1",
          "code": {
            "coding": [ {
              "system": "http://terminology.hl7.org/CodeSystem/measure-population",
              "code": "denominator",
              "display": "Denominator"
            } ]
          },
          "count": 1
        }, {
          "id": "DenominatorExclusion_1",
          "code": {
            "coding": [ {
              "system": "http://terminology.hl7.org/CodeSystem/measure-population",
              "code": "denominator-exclusion",
              "display": "Denominator Exclusion"
            } ]
          },
          "count": 1
        }, {
          "id": "Numerator_1",
          "code": {
            "coding": [ {
              "system": "http://terminology.hl7.org/CodeSystem/measure-population",
              "code": "numerator",
              "display": "Numerator"
            } ]
          },
          "count": 0
        }, {
          "id": "DenominatorException_1",
          "code": {
            "coding": [ {
              "system": "http://terminology.hl7.org/CodeSystem/measure-population",
              "code": "denominator-exception",
              "display": "Denominator Exception"
            } ]
          },
          "count": 0
        } ],
        "measureScore": {
          "value": 0.0
        }
      } ],
      "evaluatedResource": [ {
        "reference": "Patient/f0d3eb0e-a93c-4caf-8233-499a105906de"
      }, {
        "reference": "Encounter/4f28c46a-dc98-4d6b-8f0f-4a319839cb8a"
      }, {
        "reference": "Claim/56993ee2-0d0d-432d-888d-0fa81793a858"
      }, {
        "reference": "Coverage/dfcb324c-4a3f-442a-8890-a7335c15b237"
      }, {
        "reference": "Procedure/2056e9f2-8c4d-480c-a36a-012f603ad3be"
      }, {
        "reference": "Condition/715d53f4-6c02-48ba-a798-c5b36c8430da"
      }, {
        "reference": "Organization/839bb1bc-ab4f-42d7-80f1-2a4b392a3e2d"
      }, {
        "reference": "Practitioner/76c82867-1c8e-41cc-b638-4ab73f242b52"
      } ]
    },
    "request": {
      "method": "PUT",
      "url": "MeasureReport/00be0ce3-8db4-4acd-b4ee-b20abb530c0c"
    }
  } ]
}