{
  "resourceType": "Bundle",
  "id": "633c9d030968f8012250fc93",
  "type": "transaction",
  "entry": [ {
    "fullUrl": "https://madie.cms.gov/Patient/0587a75d-0dcc-4c6b-bfc0-f5727342ec1f",
    "resource": {
      "resourceType": "Patient",
      "id": "0587a75d-0dcc-4c6b-bfc0-f5727342ec1f",
      "meta": {
        "profile": [ "http://hl7.org/fhir/us/qicore/StructureDefinition/qicore-patient" ]
      },
      "text": {
        "status": "generated",
        "div": "<div xmlns=\"http://www.w3.org/1999/xhtml\"><div class=\"hapiHeaderText\">MedDCAnticoaStartTmEQEncAdmTm <b>NUMERPASS </b></div><table class=\"hapiPropertyTable\"><tbody><tr><td>Identifier</td><td>31fcea6cd6f0c1c8b9c40622729fede7</td></tr><tr><td>Date of birth</td><td><span>23 May 1954</span></td></tr></tbody></table></div>"
      },
      "extension": [ {
        "url": "http://hl7.org/fhir/us/core/StructureDefinition/us-core-race",
        "extension": [ {
          "url": "ombCategory",
          "valueCoding": {
            "system": "urn:oid:2.16.840.1.113883.6.238",
            "code": "1002-5",
            "display": "American Indian or Alaska Native",
            "userSelected": true
          }
        }, {
          "url": "text",
          "valueString": "American Indian or Alaska Native"
        } ]
      }, {
        "url": "http://hl7.org/fhir/us/core/StructureDefinition/us-core-ethnicity",
        "extension": [ {
          "url": "ombCategory",
          "valueCoding": {
            "system": "urn:oid:2.16.840.1.113883.6.238",
            "code": "2135-2",
            "display": "Hispanic or Latino",
            "userSelected": true
          }
        }, {
          "url": "text",
          "valueString": "Hispanic or Latino"
        } ]
      }, {
        "url": "http://hl7.org/fhir/us/core/StructureDefinition/us-core-sex",
        "valueCode": "248153007"
      } ],
      "identifier": [ {
        "type": {
          "coding": [ {
            "system": "http://terminology.hl7.org/CodeSystem/v2-0203",
            "code": "MR"
          } ]
        },
        "system": "https://bonnie-fhir.healthit.gov/",
        "value": "633c9d030968f8012250fc93"
      } ],
      "active": true,
      "name": [ {
        "use": "usual",
        "family": "NUMERPass",
        "given": [ "DCANTIcoagHXofABlat" ]
      } ],
      "gender": "female",
      "birthDate": "1955-05-23"
    },
    "request": {
      "method": "PUT",
      "url": "Patient/0587a75d-0dcc-4c6b-bfc0-f5727342ec1f"
    }
  }, {
    "fullUrl": "https://madie.cms.gov/Condition/6998fd2a-0e20-4b3b-9772-b18b2e08bedd",
    "resource": {
      "resourceType": "Condition",
      "id": "6998fd2a-0e20-4b3b-9772-b18b2e08bedd",
      "meta": {
        "profile": [ "http://hl7.org/fhir/us/qicore/StructureDefinition/qicore-condition-encounter-diagnosis" ]
      },
      "verificationStatus": {
        "coding": [ {
          "system": "http://terminology.hl7.org/CodeSystem/condition-ver-status",
          "code": "confirmed"
        } ]
      },
      "category": [ {
        "coding": [ {
          "system": "http://terminology.hl7.org/CodeSystem/condition-category",
          "code": "encounter-diagnosis",
          "display": "Encounter Diagnosis"
        } ]
      } ],
      "code": {
        "coding": [ {
          "system": "http://snomed.info/sct",
          "code": "429508000"
        } ]
      },
      "subject": {
        "reference": "Patient/0587a75d-0dcc-4c6b-bfc0-f5727342ec1f"
      },
      "onsetDateTime": "2026-11-18T06:00:00.000Z"
    },
    "request": {
      "method": "PUT",
      "url": "Condition/6998fd2a-0e20-4b3b-9772-b18b2e08bedd"
    }
  }, {
    "fullUrl": "https://madie.cms.gov/Encounter/9e5abea1-860e-4d55-9b0d-378f12c8010a",
    "resource": {
      "resourceType": "Encounter",
      "id": "9e5abea1-860e-4d55-9b0d-378f12c8010a",
      "meta": {
        "profile": [ "http://hl7.org/fhir/us/qicore/StructureDefinition/qicore-encounter" ]
      },
      "status": "finished",
      "class": {
        "system": "http://terminology.hl7.org/CodeSystem/v3-ActCode",
        "code": "IMP",
        "display": "inpatient encounter"
      },
      "type": [ {
        "coding": [ {
          "system": "http://snomed.info/sct",
          "code": "183452005"
        } ]
      } ],
      "subject": {
        "reference": "Patient/0587a75d-0dcc-4c6b-bfc0-f5727342ec1f"
      },
      "period": {
        "start": "2026-11-20T08:00:00.000Z",
        "end": "2026-11-24T08:15:00.000Z"
      },
      "length": {
        "value": 4,
        "unit": "days"
      },
      "reasonReference": [ {
        "reference": "Condition/6998fd2a-0e20-4b3b-9772-b18b2e08bedd"
      } ]
    },
    "request": {
      "method": "PUT",
      "url": "Encounter/9e5abea1-860e-4d55-9b0d-378f12c8010a"
    }
  }, {
    "fullUrl": "https://madie.cms.gov/MedicationRequest/bc3fa90b-b2d1-4b1a-a523-36a7cf226f20",
    "resource": {
      "resourceType": "MedicationRequest",
      "id": "bc3fa90b-b2d1-4b1a-a523-36a7cf226f20",
      "meta": {
        "profile": [ "http://hl7.org/fhir/us/qicore/StructureDefinition/qicore-medicationrequest" ]
      },
      "status": "active",
      "intent": "order",
      "category": [ {
        "coding": [ {
          "system": "http://terminology.hl7.org/CodeSystem/medicationrequest-category",
          "code": "community",
          "display": "Community",
          "userSelected": true
        } ]
      } ],
      "medicationCodeableConcept": {
        "coding": [ {
          "system": "http://www.nlm.nih.gov/research/umls/rxnorm",
          "code": "308351"
        } ]
      },
      "subject": {
        "reference": "Patient/0587a75d-0dcc-4c6b-bfc0-f5727342ec1f"
      },
      "authoredOn": "2026-11-20T08:00:00.000Z",
      "requester": {
        "reference": "Practitioner/example"
      }
    },
    "request": {
      "method": "PUT",
      "url": "MedicationRequest/bc3fa90b-b2d1-4b1a-a523-36a7cf226f20"
    }
  }, {
    "fullUrl": "https://madie.cms.gov/Coverage/1372df2f-5464-4fc1-994d-834b7ff0afe8",
    "resource": {
      "resourceType": "Coverage",
      "id": "1372df2f-5464-4fc1-994d-834b7ff0afe8",
      "meta": {
        "profile": [ "http://hl7.org/fhir/us/qicore/StructureDefinition/qicore-coverage" ]
      },
      "status": "active",
      "subscriberId": "523435",
      "beneficiary": {
        "reference": "Patient/0587a75d-0dcc-4c6b-bfc0-f5727342ec1f"
      },
      "relationship": {
        "coding": [ {
          "system": "http://terminology.hl7.org/CodeSystem/subscriber-relationship",
          "code": "self"
        } ]
      },
      "payor": [ {
        "reference": "Organization/4dbf7277-4db5-4996-92de-b5c2232916a6"
      } ]
    },
    "request": {
      "method": "PUT",
      "url": "Coverage/1372df2f-5464-4fc1-994d-834b7ff0afe8"
    }
  }, {
    "fullUrl": "https://madie.cms.gov/Claim/c3da30c2-ae38-4645-a90e-30490bf2225a",
    "resource": {
      "resourceType": "Claim",
      "id": "c3da30c2-ae38-4645-a90e-30490bf2225a",
      "meta": {
        "profile": [ "http://hl7.org/fhir/us/qicore/StructureDefinition/qicore-claim" ]
      },
      "status": "active",
      "type": {
        "coding": [ {
          "system": "http://terminology.hl7.org/CodeSystem/claim-type",
          "code": "institutional"
        } ]
      },
      "use": "claim",
      "patient": {
        "reference": "Patient/0587a75d-0dcc-4c6b-bfc0-f5727342ec1f"
      },
      "created": "2026-12-01",
      "provider": {
        "reference": "Practitioner/c83bed59-604b-4b77-a7fb-212067db5c01"
      },
      "priority": {
        "coding": [ {
          "system": "http://terminology.hl7.org/CodeSystem/processpriority",
          "code": "normal"
        } ]
      },
      "diagnosis": [ {
        "sequence": 1,
        "diagnosisCodeableConcept": {
          "coding": [ {
            "system": "http://hl7.org/fhir/sid/icd-10-cm",
            "code": "I63.00"
          } ]
        },
        "type": [ {
          "coding": [ {
            "system": "http://terminology.hl7.org/CodeSystem/ex-diagnosistype",
            "code": "principal"
          } ]
        } ]
      } ],
      "insurance": [ {
        "sequence": 1,
        "focal": true,
        "coverage": {
          "reference": "Coverage/5fa041661c76ba66d9959367"
        }
      } ],
      "item": [ {
        "sequence": 1,
        "diagnosisSequence": [ 1 ],
        "productOrService": {
          "coding": [ {
            "system": "http://terminology.hl7.org/CodeSystem/ex-USCLS",
            "code": "99555"
          } ]
        },
        "encounter": [ {
          "reference": "Encounter/9e5abea1-860e-4d55-9b0d-378f12c8010a"
        } ]
      } ]
    },
    "request": {
      "method": "PUT",
      "url": "Claim/c3da30c2-ae38-4645-a90e-30490bf2225a"
    }
  }, {
    "fullUrl": "https://madie.cms.gov/Organization/4dbf7277-4db5-4996-92de-b5c2232916a6",
    "resource": {
      "resourceType": "Organization",
      "id": "4dbf7277-4db5-4996-92de-b5c2232916a6",
      "meta": {
        "profile": [ "http://hl7.org/fhir/us/qicore/StructureDefinition/qicore-organization" ]
      },
      "identifier": [ {
        "use": "temp",
        "system": "urn:oid:2.16.840.1.113883.4.4",
        "value": "21-3259825"
      } ],
      "active": true,
      "type": [ {
        "coding": [ {
          "system": "http://terminology.hl7.org/CodeSystem/organization-type",
          "code": "pay",
          "display": "Payer"
        } ]
      } ],
      "name": "Blue Cross Blue Shield of Texas",
      "telecom": [ {
        "system": "phone",
        "value": "(+1) 972-766-6900"
      } ],
      "address": [ {
        "use": "billing",
        "type": "postal",
        "line": [ "P.O. Box 660044" ],
        "city": "Dallas",
        "state": "TX",
        "postalCode": "75266-0044",
        "country": "USA"
      } ]
    },
    "request": {
      "method": "PUT",
      "url": "Organization/4dbf7277-4db5-4996-92de-b5c2232916a6"
    }
  }, {
    "fullUrl": "https://madie.cms.gov/Practitioner/c83bed59-604b-4b77-a7fb-212067db5c01",
    "resource": {
      "resourceType": "Practitioner",
      "id": "c83bed59-604b-4b77-a7fb-212067db5c01",
      "meta": {
        "profile": [ "http://hl7.org/fhir/us/qicore/StructureDefinition/qicore-practitioner" ]
      },
      "identifier": [ {
        "system": "http://hl7.org/fhir/sid/us-npi",
        "value": "9999999896"
      } ],
      "name": [ {
        "family": "Evil",
        "prefix": [ "Dr" ]
      } ]
    },
    "request": {
      "method": "PUT",
      "url": "Practitioner/c83bed59-604b-4b77-a7fb-212067db5c01"
    }
  }, {
    "fullUrl": "https://madie.cms.gov/MeasureReport/c8a99645-6e7a-467b-87aa-456cdc7cafb9",
    "resource": {
      "resourceType": "MeasureReport",
      "id": "c8a99645-6e7a-467b-87aa-456cdc7cafb9",
      "meta": {
        "profile": [ "http://hl7.org/fhir/us/cqfmeasures/StructureDefinition/test-case-cqfm" ]
      },
      "contained": [ {
        "resourceType": "Parameters",
        "id": "6e411e9e-dda4-4da7-8376-feca71cf9966-parameters",
        "parameter": [ {
          "name": "subject",
          "valueString": "0587a75d-0dcc-4c6b-bfc0-f5727342ec1f"
        } ]
      } ],
      "extension": [ {
        "url": "http://hl7.org/fhir/StructureDefinition/cqf-inputParameters",
        "valueReference": {
          "reference": "#6e411e9e-dda4-4da7-8376-feca71cf9966-parameters"
        }
      }, {
        "url": "http://hl7.org/fhir/us/cqfmeasures/StructureDefinition/cqfm-testCaseDescription",
        "valueMarkdown": "Patient DC on Anticoagulant has a History of Atrial Ablation as confirmed"
      } ],
      "modifierExtension": [ {
        "url": "http://hl7.org/fhir/us/cqfmeasures/StructureDefinition/cqfm-isTestCase",
        "valueBoolean": true
      } ],
      "status": "complete",
      "type": "individual",
      "measure": "https://madie.cms.gov/Measure/CMS71FHIRSTKAnticoagAFFlutter",
      "period": {
        "start": "2026-01-01",
        "end": "2026-12-31"
      },
      "group": [ {
        "id": "Group_1",
        "population": [ {
          "id": "InitialPopulation_1",
          "code": {
            "coding": [ {
              "system": "http://terminology.hl7.org/CodeSystem/measure-population",
              "code": "initial-population",
              "display": "Initial Population"
            } ]
          },
          "count": 1
        }, {
          "id": "Denominator_1",
          "code": {
            "coding": [ {
              "system": "http://terminology.hl7.org/CodeSystem/measure-population",
              "code": "denominator",
              "display": "Denominator"
            } ]
          },
          "count": 1
        }, {
          "id": "DenominatorExclusion_1",
          "code": {
            "coding": [ {
              "system": "http://terminology.hl7.org/CodeSystem/measure-population",
              "code": "denominator-exclusion",
              "display": "Denominator Exclusion"
            } ]
          },
          "count": 0
        }, {
          "id": "Numerator_1",
          "code": {
            "coding": [ {
              "system": "http://terminology.hl7.org/CodeSystem/measure-population",
              "code": "numerator",
              "display": "Numerator"
            } ]
          },
          "count": 1
        }, {
          "id": "DenominatorException_1",
          "code": {
            "coding": [ {
              "system": "http://terminology.hl7.org/CodeSystem/measure-population",
              "code": "denominator-exception",
              "display": "Denominator Exception"
            } ]
          },
          "count": 0
        } ],
        "measureScore": {
          "value": 0.0
        }
      } ],
      "evaluatedResource": [ {
        "reference": "Patient/0587a75d-0dcc-4c6b-bfc0-f5727342ec1f"
      }, {
        "reference": "Condition/6998fd2a-0e20-4b3b-9772-b18b2e08bedd"
      }, {
        "reference": "Encounter/9e5abea1-860e-4d55-9b0d-378f12c8010a"
      }, {
        "reference": "MedicationRequest/bc3fa90b-b2d1-4b1a-a523-36a7cf226f20"
      }, {
        "reference": "Coverage/1372df2f-5464-4fc1-994d-834b7ff0afe8"
      }, {
        "reference": "Claim/c3da30c2-ae38-4645-a90e-30490bf2225a"
      }, {
        "reference": "Organization/4dbf7277-4db5-4996-92de-b5c2232916a6"
      }, {
        "reference": "Practitioner/c83bed59-604b-4b77-a7fb-212067db5c01"
      } ]
    },
    "request": {
      "method": "PUT",
      "url": "MeasureReport/c8a99645-6e7a-467b-87aa-456cdc7cafb9"
    }
  } ]
}