{
  "resourceType": "Bundle",
  "id": "633c9d030968f8012250fc9d",
  "type": "transaction",
  "entry": [ {
    "fullUrl": "https://madie.cms.gov/Patient/3b8d6a18-b4a3-4369-b33c-6a6daa6b5b4c",
    "resource": {
      "resourceType": "Patient",
      "id": "3b8d6a18-b4a3-4369-b33c-6a6daa6b5b4c",
      "meta": {
        "profile": [ "http://hl7.org/fhir/us/qicore/StructureDefinition/qicore-patient" ]
      },
      "text": {
        "status": "generated",
        "div": "<div xmlns=\"http://www.w3.org/1999/xhtml\"><div class=\"hapiHeaderText\">MedDCAnticoaStartTmEQEncDischTm <b>NUMERPASS </b></div><table class=\"hapiPropertyTable\"><tbody><tr><td>Identifier</td><td>9128716b0b21eec571089f9d5d345182</td></tr><tr><td>Date of birth</td><td><span>23 May 1954</span></td></tr></tbody></table></div>"
      },
      "extension": [ {
        "url": "http://hl7.org/fhir/us/core/StructureDefinition/us-core-race",
        "extension": [ {
          "url": "ombCategory",
          "valueCoding": {
            "system": "urn:oid:2.16.840.1.113883.6.238",
            "code": "1002-5",
            "display": "American Indian or Alaska Native",
            "userSelected": true
          }
        }, {
          "url": "text",
          "valueString": "American Indian or Alaska Native"
        } ]
      }, {
        "url": "http://hl7.org/fhir/us/core/StructureDefinition/us-core-ethnicity",
        "extension": [ {
          "url": "ombCategory",
          "valueCoding": {
            "system": "urn:oid:2.16.840.1.113883.6.238",
            "code": "2135-2",
            "display": "Hispanic or Latino",
            "userSelected": true
          }
        }, {
          "url": "text",
          "valueString": "Hispanic or Latino"
        } ]
      } ],
      "identifier": [ {
        "type": {
          "coding": [ {
            "system": "http://terminology.hl7.org/CodeSystem/v2-0203",
            "code": "MR"
          } ]
        },
        "system": "https://bonnie-fhir.healthit.gov/",
        "value": "633c9d030968f8012250fc9d"
      } ],
      "active": true,
      "name": [ {
        "use": "usual",
        "family": "NUMERPass",
        "given": [ "MedDCAnticoaStartTmEQEncDischTm" ]
      } ],
      "gender": "female",
      "birthDate": "1955-05-23"
    },
    "request": {
      "method": "PUT",
      "url": "Patient/3b8d6a18-b4a3-4369-b33c-6a6daa6b5b4c"
    }
  }, {
    "fullUrl": "https://madie.cms.gov/Encounter/74b8a667-1c82-45d5-a6dd-b3e039903368",
    "resource": {
      "resourceType": "Encounter",
      "id": "74b8a667-1c82-45d5-a6dd-b3e039903368",
      "meta": {
        "profile": [ "http://hl7.org/fhir/us/qicore/StructureDefinition/qicore-encounter" ]
      },
      "status": "finished",
      "class": {
        "system": "http://terminology.hl7.org/CodeSystem/v3-ActCode",
        "code": "IMP",
        "display": "inpatient encounter"
      },
      "type": [ {
        "coding": [ {
          "system": "http://snomed.info/sct",
          "code": "32485007"
        } ]
      } ],
      "subject": {
        "reference": "Patient/3b8d6a18-b4a3-4369-b33c-6a6daa6b5b4c"
      },
      "period": {
        "start": "2026-11-20T08:00:00.000Z",
        "end": "2026-11-24T08:15:00.000Z"
      },
      "length": {
        "value": 4,
        "unit": "days"
      },
      "diagnosis": [ {
        "condition": {
          "reference": "Condition/2af980f9-49a8-46e4-bd5d-15f5cf33a8b0"
        },
        "use": {
          "coding": [ {
            "system": "http://terminology.hl7.org/CodeSystem/diagnosis-role",
            "code": "billing",
            "display": "Billing"
          } ]
        },
        "rank": 1
      } ]
    },
    "request": {
      "method": "PUT",
      "url": "Encounter/74b8a667-1c82-45d5-a6dd-b3e039903368"
    }
  }, {
    "fullUrl": "https://madie.cms.gov/Claim/4aa73b45-e9f3-4326-b5ec-11e514578b31",
    "resource": {
      "resourceType": "Claim",
      "id": "4aa73b45-e9f3-4326-b5ec-11e514578b31",
      "meta": {
        "profile": [ "http://hl7.org/fhir/us/qicore/StructureDefinition/qicore-claim" ]
      },
      "status": "active",
      "type": {
        "coding": [ {
          "system": "http://terminology.hl7.org/CodeSystem/claim-type",
          "code": "institutional"
        } ]
      },
      "use": "claim",
      "patient": {
        "reference": "Patient/3b8d6a18-b4a3-4369-b33c-6a6daa6b5b4c"
      },
      "created": "2026-12-01",
      "provider": {
        "reference": "Practitioner/197dbda4-1f25-4043-9fce-cd00ec7fca5d"
      },
      "priority": {
        "coding": [ {
          "system": "http://terminology.hl7.org/CodeSystem/processpriority",
          "code": "normal"
        } ]
      },
      "diagnosis": [ {
        "sequence": 1,
        "diagnosisCodeableConcept": {
          "coding": [ {
            "system": "http://hl7.org/fhir/sid/icd-10-cm",
            "code": "I63.00"
          } ]
        },
        "type": [ {
          "coding": [ {
            "system": "http://terminology.hl7.org/CodeSystem/ex-diagnosistype",
            "code": "principal"
          } ]
        } ]
      } ],
      "insurance": [ {
        "sequence": 1,
        "focal": true,
        "coverage": {
          "reference": "Coverage/5fa041661c76ba66d9959367"
        }
      } ],
      "item": [ {
        "sequence": 1,
        "diagnosisSequence": [ 1 ],
        "productOrService": {
          "coding": [ {
            "system": "http://terminology.hl7.org/CodeSystem/ex-USCLS",
            "code": "99555"
          } ]
        },
        "encounter": [ {
          "reference": "Encounter/74b8a667-1c82-45d5-a6dd-b3e039903368"
        } ]
      } ]
    },
    "request": {
      "method": "PUT",
      "url": "Claim/4aa73b45-e9f3-4326-b5ec-11e514578b31"
    }
  }, {
    "fullUrl": "https://madie.cms.gov/MedicationRequest/6daadf4a-4633-442c-a5ba-3db695701d40",
    "resource": {
      "resourceType": "MedicationRequest",
      "id": "6daadf4a-4633-442c-a5ba-3db695701d40",
      "meta": {
        "profile": [ "http://hl7.org/fhir/us/qicore/StructureDefinition/qicore-medicationrequest" ]
      },
      "status": "active",
      "intent": "order",
      "category": [ {
        "coding": [ {
          "system": "http://terminology.hl7.org/CodeSystem/medicationrequest-category",
          "code": "community",
          "display": "Community",
          "userSelected": true
        } ]
      } ],
      "medicationCodeableConcept": {
        "coding": [ {
          "system": "http://www.nlm.nih.gov/research/umls/rxnorm",
          "code": "308351"
        } ]
      },
      "subject": {
        "reference": "Patient/3b8d6a18-b4a3-4369-b33c-6a6daa6b5b4c"
      },
      "authoredOn": "2026-11-24T08:15:00.000Z",
      "requester": {
        "reference": "Practitioner/example"
      }
    },
    "request": {
      "method": "PUT",
      "url": "MedicationRequest/6daadf4a-4633-442c-a5ba-3db695701d40"
    }
  }, {
    "fullUrl": "https://madie.cms.gov/Coverage/3f925034-6511-4e4f-9936-3a7f684f4832",
    "resource": {
      "resourceType": "Coverage",
      "id": "3f925034-6511-4e4f-9936-3a7f684f4832",
      "status": "active",
      "beneficiary": {
        "reference": "Patient/3b8d6a18-b4a3-4369-b33c-6a6daa6b5b4c"
      },
      "period": {
        "start": "1955-05-23T08:00:00.000Z"
      },
      "payor": [ {
        "reference": "Organization/9598e85d-243a-4210-ae67-274643fdd569"
      } ]
    },
    "request": {
      "method": "PUT",
      "url": "Coverage/3f925034-6511-4e4f-9936-3a7f684f4832"
    }
  }, {
    "fullUrl": "https://madie.cms.gov/Procedure/84df74e6-0e70-4307-a21d-cc6eceef797b",
    "resource": {
      "resourceType": "Procedure",
      "id": "84df74e6-0e70-4307-a21d-cc6eceef797b",
      "meta": {
        "profile": [ "http://hl7.org/fhir/us/qicore/StructureDefinition/qicore-procedure" ]
      },
      "extension": [ {
        "url": "http://hl7.org/fhir/us/qicore/StructureDefinition/qicore-recorded",
        "valueDateTime": "2026-11-19T13:35:00.000Z"
      } ],
      "status": "unknown",
      "code": {
        "coding": [ {
          "system": "http://www.cms.gov/Medicare/Coding/ICD10",
          "code": "02560ZZ"
        }, {
          "system": "http://snomed.info/sct",
          "code": "175095005"
        } ]
      },
      "subject": {
        "reference": "Patient/3b8d6a18-b4a3-4369-b33c-6a6daa6b5b4c"
      },
      "performedPeriod": {
        "start": "2026-11-20T06:00:00.000Z",
        "end": "2026-11-20T07:15:00.000Z"
      }
    },
    "request": {
      "method": "PUT",
      "url": "Procedure/84df74e6-0e70-4307-a21d-cc6eceef797b"
    }
  }, {
    "fullUrl": "https://madie.cms.gov/Condition/2af980f9-49a8-46e4-bd5d-15f5cf33a8b0",
    "resource": {
      "resourceType": "Condition",
      "id": "2af980f9-49a8-46e4-bd5d-15f5cf33a8b0",
      "meta": {
        "profile": [ "http://hl7.org/fhir/us/qicore/StructureDefinition/qicore-condition-encounter-diagnosis" ]
      },
      "clinicalStatus": {
        "coding": [ {
          "system": "http://terminology.hl7.org/CodeSystem/condition-clinical",
          "code": "active"
        } ]
      },
      "verificationStatus": {
        "coding": [ {
          "system": "http://terminology.hl7.org/CodeSystem/condition-ver-status",
          "code": "confirmed"
        } ]
      },
      "category": [ {
        "coding": [ {
          "system": "http://terminology.hl7.org/CodeSystem/condition-category",
          "code": "encounter-diagnosis",
          "display": "Encounter Diagnosis"
        } ]
      } ],
      "code": {
        "coding": [ {
          "system": "http://snomed.info/sct",
          "version": "2021-09",
          "code": "111297002",
          "display": "Nonparalytic stroke (disorder)",
          "userSelected": true
        } ]
      },
      "subject": {
        "reference": "Patient/3b8d6a18-b4a3-4369-b33c-6a6daa6b5b4c"
      },
      "recordedDate": "2026-10-13T08:00:00.000Z"
    },
    "request": {
      "method": "PUT",
      "url": "Condition/2af980f9-49a8-46e4-bd5d-15f5cf33a8b0"
    }
  }, {
    "fullUrl": "https://madie.cms.gov/Organization/9598e85d-243a-4210-ae67-274643fdd569",
    "resource": {
      "resourceType": "Organization",
      "id": "9598e85d-243a-4210-ae67-274643fdd569",
      "meta": {
        "profile": [ "http://hl7.org/fhir/us/qicore/StructureDefinition/qicore-organization" ]
      },
      "identifier": [ {
        "use": "temp",
        "system": "urn:oid:2.16.840.1.113883.4.4",
        "value": "21-3259825"
      } ],
      "active": true,
      "type": [ {
        "coding": [ {
          "system": "http://terminology.hl7.org/CodeSystem/organization-type",
          "code": "pay",
          "display": "Payer"
        } ]
      } ],
      "name": "Blue Cross Blue Shield of Texas",
      "telecom": [ {
        "system": "phone",
        "value": "(+1) 972-766-6900"
      } ],
      "address": [ {
        "use": "billing",
        "type": "postal",
        "line": [ "P.O. Box 660044" ],
        "city": "Dallas",
        "state": "TX",
        "postalCode": "75266-0044",
        "country": "USA"
      } ]
    },
    "request": {
      "method": "PUT",
      "url": "Organization/9598e85d-243a-4210-ae67-274643fdd569"
    }
  }, {
    "fullUrl": "https://madie.cms.gov/Practitioner/197dbda4-1f25-4043-9fce-cd00ec7fca5d",
    "resource": {
      "resourceType": "Practitioner",
      "id": "197dbda4-1f25-4043-9fce-cd00ec7fca5d",
      "meta": {
        "profile": [ "http://hl7.org/fhir/us/qicore/StructureDefinition/qicore-practitioner" ]
      },
      "identifier": [ {
        "system": "http://hl7.org/fhir/sid/us-npi",
        "value": "9999999896"
      } ],
      "name": [ {
        "family": "Evil",
        "prefix": [ "Dr" ]
      } ]
    },
    "request": {
      "method": "PUT",
      "url": "Practitioner/197dbda4-1f25-4043-9fce-cd00ec7fca5d"
    }
  }, {
    "fullUrl": "https://madie.cms.gov/MeasureReport/c6583ba1-a8ac-455f-8d58-9ee23ff7e450",
    "resource": {
      "resourceType": "MeasureReport",
      "id": "c6583ba1-a8ac-455f-8d58-9ee23ff7e450",
      "meta": {
        "profile": [ "http://hl7.org/fhir/us/cqfmeasures/StructureDefinition/test-case-cqfm" ]
      },
      "contained": [ {
        "resourceType": "Parameters",
        "id": "765c065d-0655-42d2-a672-4c9e5114333f-parameters",
        "parameter": [ {
          "name": "subject",
          "valueString": "3b8d6a18-b4a3-4369-b33c-6a6daa6b5b4c"
        } ]
      } ],
      "extension": [ {
        "url": "http://hl7.org/fhir/StructureDefinition/cqf-inputParameters",
        "valueReference": {
          "reference": "#765c065d-0655-42d2-a672-4c9e5114333f-parameters"
        }
      }, {
        "url": "http://hl7.org/fhir/us/cqfmeasures/StructureDefinition/cqfm-testCaseDescription",
        "valueMarkdown": "Coverage for AA procedure listed as unknown"
      } ],
      "modifierExtension": [ {
        "url": "http://hl7.org/fhir/us/cqfmeasures/StructureDefinition/cqfm-isTestCase",
        "valueBoolean": true
      } ],
      "status": "complete",
      "type": "individual",
      "measure": "https://madie.cms.gov/Measure/CMS71FHIRSTKAnticoagAFFlutter",
      "period": {
        "start": "2026-01-01",
        "end": "2026-12-31"
      },
      "group": [ {
        "id": "Group_1",
        "population": [ {
          "id": "InitialPopulation_1",
          "code": {
            "coding": [ {
              "system": "http://terminology.hl7.org/CodeSystem/measure-population",
              "code": "initial-population",
              "display": "Initial Population"
            } ]
          },
          "count": 1
        }, {
          "id": "Denominator_1",
          "code": {
            "coding": [ {
              "system": "http://terminology.hl7.org/CodeSystem/measure-population",
              "code": "denominator",
              "display": "Denominator"
            } ]
          },
          "count": 0
        }, {
          "id": "DenominatorExclusion_1",
          "code": {
            "coding": [ {
              "system": "http://terminology.hl7.org/CodeSystem/measure-population",
              "code": "denominator-exclusion",
              "display": "Denominator Exclusion"
            } ]
          },
          "count": 0
        }, {
          "id": "Numerator_1",
          "code": {
            "coding": [ {
              "system": "http://terminology.hl7.org/CodeSystem/measure-population",
              "code": "numerator",
              "display": "Numerator"
            } ]
          },
          "count": 0
        }, {
          "id": "DenominatorException_1",
          "code": {
            "coding": [ {
              "system": "http://terminology.hl7.org/CodeSystem/measure-population",
              "code": "denominator-exception",
              "display": "Denominator Exception"
            } ]
          },
          "count": 0
        } ],
        "measureScore": {
          "value": 0.0
        }
      } ],
      "evaluatedResource": [ {
        "reference": "Patient/3b8d6a18-b4a3-4369-b33c-6a6daa6b5b4c"
      }, {
        "reference": "Encounter/74b8a667-1c82-45d5-a6dd-b3e039903368"
      }, {
        "reference": "Claim/4aa73b45-e9f3-4326-b5ec-11e514578b31"
      }, {
        "reference": "MedicationRequest/6daadf4a-4633-442c-a5ba-3db695701d40"
      }, {
        "reference": "Coverage/3f925034-6511-4e4f-9936-3a7f684f4832"
      }, {
        "reference": "Procedure/84df74e6-0e70-4307-a21d-cc6eceef797b"
      }, {
        "reference": "Condition/2af980f9-49a8-46e4-bd5d-15f5cf33a8b0"
      }, {
        "reference": "Organization/9598e85d-243a-4210-ae67-274643fdd569"
      }, {
        "reference": "Practitioner/197dbda4-1f25-4043-9fce-cd00ec7fca5d"
      } ]
    },
    "request": {
      "method": "PUT",
      "url": "MeasureReport/c6583ba1-a8ac-455f-8d58-9ee23ff7e450"
    }
  } ]
}