{
  "resourceType": "Bundle",
  "id": "633c9d030968f8012250fc6b",
  "type": "transaction",
  "entry": [ {
    "fullUrl": "https://madie.cms.gov/Patient/2c1e6f23-20a1-44c3-8c2a-0bec67c3d2f5",
    "resource": {
      "resourceType": "Patient",
      "id": "2c1e6f23-20a1-44c3-8c2a-0bec67c3d2f5",
      "meta": {
        "profile": [ "http://hl7.org/fhir/us/qicore/StructureDefinition/qicore-patient" ]
      },
      "text": {
        "status": "generated",
        "div": "<div xmlns=\"http://www.w3.org/1999/xhtml\"><div class=\"hapiHeaderText\">EncPrinDx=IschemicStroke <b>IPPPASS </b></div><table class=\"hapiPropertyTable\"><tbody><tr><td>Identifier</td><td>e24e934ef2385ddb5e9ee5c55913bf5e</td></tr><tr><td>Date of birth</td><td><span>01 December 1960</span></td></tr></tbody></table></div>"
      },
      "extension": [ {
        "url": "http://hl7.org/fhir/us/core/StructureDefinition/us-core-race",
        "extension": [ {
          "url": "ombCategory",
          "valueCoding": {
            "system": "urn:oid:2.16.840.1.113883.6.238",
            "code": "1002-5",
            "display": "American Indian or Alaska Native",
            "userSelected": true
          }
        }, {
          "url": "text",
          "valueString": "American Indian or Alaska Native"
        } ]
      }, {
        "url": "http://hl7.org/fhir/us/core/StructureDefinition/us-core-ethnicity",
        "extension": [ {
          "url": "ombCategory",
          "valueCoding": {
            "system": "urn:oid:2.16.840.1.113883.6.238",
            "code": "2135-2",
            "display": "Hispanic or Latino",
            "userSelected": true
          }
        }, {
          "url": "text",
          "valueString": "Hispanic or Latino"
        } ]
      } ],
      "identifier": [ {
        "type": {
          "coding": [ {
            "system": "http://terminology.hl7.org/CodeSystem/v2-0203",
            "code": "MR"
          } ]
        },
        "system": "https://bonnie-fhir.healthit.gov/",
        "value": "633c9d030968f8012250fc6b"
      } ],
      "active": true,
      "name": [ {
        "use": "usual",
        "family": "IPPPass ",
        "given": [ "EncPrinDx=IschemicStroke" ]
      } ],
      "gender": "male",
      "birthDate": "1961-12-01"
    },
    "request": {
      "method": "PUT",
      "url": "Patient/2c1e6f23-20a1-44c3-8c2a-0bec67c3d2f5"
    }
  }, {
    "fullUrl": "https://madie.cms.gov/Encounter/4b934362-a242-4a99-9c33-b170a1fef5ce",
    "resource": {
      "resourceType": "Encounter",
      "id": "4b934362-a242-4a99-9c33-b170a1fef5ce",
      "meta": {
        "profile": [ "http://hl7.org/fhir/us/qicore/StructureDefinition/qicore-encounter" ]
      },
      "status": "finished",
      "class": {
        "system": "http://terminology.hl7.org/CodeSystem/v3-ActCode",
        "code": "IMP",
        "display": "inpatient encounter"
      },
      "type": [ {
        "coding": [ {
          "system": "http://snomed.info/sct",
          "code": "32485007"
        } ]
      } ],
      "subject": {
        "reference": "Patient/2c1e6f23-20a1-44c3-8c2a-0bec67c3d2f5"
      },
      "period": {
        "start": "2026-02-08T08:00:00.000Z",
        "end": "2026-02-10T08:15:00.000Z"
      },
      "length": {
        "value": 2,
        "unit": "days"
      },
      "diagnosis": [ {
        "condition": {
          "reference": "Condition/6ac49630-d810-4ab4-b4e7-a27cd0ecca56"
        },
        "use": {
          "coding": [ {
            "system": "http://terminology.hl7.org/CodeSystem/diagnosis-role",
            "code": "billing",
            "display": "Billing"
          } ]
        },
        "rank": 1
      } ]
    },
    "request": {
      "method": "PUT",
      "url": "Encounter/4b934362-a242-4a99-9c33-b170a1fef5ce"
    }
  }, {
    "fullUrl": "https://madie.cms.gov/Claim/201467e0-c830-4590-a99d-5e02ea887204",
    "resource": {
      "resourceType": "Claim",
      "id": "201467e0-c830-4590-a99d-5e02ea887204",
      "meta": {
        "profile": [ "http://hl7.org/fhir/us/qicore/StructureDefinition/qicore-claim" ]
      },
      "status": "active",
      "type": {
        "coding": [ {
          "system": "http://terminology.hl7.org/CodeSystem/claim-type",
          "code": "institutional"
        } ]
      },
      "use": "claim",
      "patient": {
        "reference": "Patient/2c1e6f23-20a1-44c3-8c2a-0bec67c3d2f5"
      },
      "created": "2026-12-01",
      "provider": {
        "reference": "Practitioner/d9b66378-f6c3-4187-8168-9c0ac322964d"
      },
      "priority": {
        "coding": [ {
          "system": "http://terminology.hl7.org/CodeSystem/processpriority",
          "code": "normal"
        } ]
      },
      "diagnosis": [ {
        "sequence": 1,
        "diagnosisCodeableConcept": {
          "coding": [ {
            "system": "http://hl7.org/fhir/sid/icd-10-cm",
            "code": "I63.00"
          } ]
        },
        "type": [ {
          "coding": [ {
            "system": "http://terminology.hl7.org/CodeSystem/ex-diagnosistype",
            "code": "principal"
          } ]
        } ]
      } ],
      "insurance": [ {
        "sequence": 1,
        "focal": true,
        "coverage": {
          "reference": "Coverage/5fa041661c76ba66d9959367"
        }
      } ],
      "item": [ {
        "sequence": 1,
        "diagnosisSequence": [ 1 ],
        "productOrService": {
          "coding": [ {
            "system": "http://terminology.hl7.org/CodeSystem/ex-USCLS",
            "code": "99555"
          } ]
        },
        "encounter": [ {
          "reference": "Encounter/4b934362-a242-4a99-9c33-b170a1fef5ce"
        } ]
      } ]
    },
    "request": {
      "method": "PUT",
      "url": "Claim/201467e0-c830-4590-a99d-5e02ea887204"
    }
  }, {
    "fullUrl": "https://madie.cms.gov/Coverage/f9dc9752-8932-4090-96ce-8e6312dcb9a5",
    "resource": {
      "resourceType": "Coverage",
      "id": "f9dc9752-8932-4090-96ce-8e6312dcb9a5",
      "status": "active",
      "beneficiary": {
        "reference": "Patient/2c1e6f23-20a1-44c3-8c2a-0bec67c3d2f5"
      },
      "period": {
        "start": "1961-12-01T08:00:00.000Z"
      },
      "payor": [ {
        "reference": "Organization/3dd073b9-b933-4a59-b8fd-828e70fd2f36"
      } ]
    },
    "request": {
      "method": "PUT",
      "url": "Coverage/f9dc9752-8932-4090-96ce-8e6312dcb9a5"
    }
  }, {
    "fullUrl": "https://madie.cms.gov/Condition/6ac49630-d810-4ab4-b4e7-a27cd0ecca56",
    "resource": {
      "resourceType": "Condition",
      "id": "6ac49630-d810-4ab4-b4e7-a27cd0ecca56",
      "meta": {
        "profile": [ "http://hl7.org/fhir/us/qicore/StructureDefinition/qicore-condition-encounter-diagnosis" ]
      },
      "clinicalStatus": {
        "coding": [ {
          "system": "http://terminology.hl7.org/CodeSystem/condition-clinical",
          "code": "active"
        } ]
      },
      "verificationStatus": {
        "coding": [ {
          "system": "http://terminology.hl7.org/CodeSystem/condition-ver-status",
          "code": "confirmed"
        } ]
      },
      "category": [ {
        "coding": [ {
          "system": "http://terminology.hl7.org/CodeSystem/condition-category",
          "code": "encounter-diagnosis",
          "display": "Encounter Diagnosis"
        } ]
      } ],
      "code": {
        "coding": [ {
          "system": "http://snomed.info/sct",
          "version": "2021-09",
          "code": "111297002",
          "display": "Nonparalytic stroke (disorder)",
          "userSelected": true
        } ]
      },
      "subject": {
        "reference": "Patient/2c1e6f23-20a1-44c3-8c2a-0bec67c3d2f5"
      },
      "recordedDate": "2026-10-13T08:00:00.000Z"
    },
    "request": {
      "method": "PUT",
      "url": "Condition/6ac49630-d810-4ab4-b4e7-a27cd0ecca56"
    }
  }, {
    "fullUrl": "https://madie.cms.gov/Organization/3dd073b9-b933-4a59-b8fd-828e70fd2f36",
    "resource": {
      "resourceType": "Organization",
      "id": "3dd073b9-b933-4a59-b8fd-828e70fd2f36",
      "meta": {
        "profile": [ "http://hl7.org/fhir/us/qicore/StructureDefinition/qicore-organization" ]
      },
      "identifier": [ {
        "use": "temp",
        "system": "urn:oid:2.16.840.1.113883.4.4",
        "value": "21-3259825"
      } ],
      "active": true,
      "type": [ {
        "coding": [ {
          "system": "http://terminology.hl7.org/CodeSystem/organization-type",
          "code": "pay",
          "display": "Payer"
        } ]
      } ],
      "name": "Blue Cross Blue Shield of Texas",
      "telecom": [ {
        "system": "phone",
        "value": "(+1) 972-766-6900"
      } ],
      "address": [ {
        "use": "billing",
        "type": "postal",
        "line": [ "P.O. Box 660044" ],
        "city": "Dallas",
        "state": "TX",
        "postalCode": "75266-0044",
        "country": "USA"
      } ]
    },
    "request": {
      "method": "PUT",
      "url": "Organization/3dd073b9-b933-4a59-b8fd-828e70fd2f36"
    }
  }, {
    "fullUrl": "https://madie.cms.gov/Practitioner/d9b66378-f6c3-4187-8168-9c0ac322964d",
    "resource": {
      "resourceType": "Practitioner",
      "id": "d9b66378-f6c3-4187-8168-9c0ac322964d",
      "meta": {
        "profile": [ "http://hl7.org/fhir/us/qicore/StructureDefinition/qicore-practitioner" ]
      },
      "identifier": [ {
        "system": "http://hl7.org/fhir/sid/us-npi",
        "value": "9999999896"
      } ],
      "name": [ {
        "family": "Evil",
        "prefix": [ "Dr" ]
      } ]
    },
    "request": {
      "method": "PUT",
      "url": "Practitioner/d9b66378-f6c3-4187-8168-9c0ac322964d"
    }
  }, {
    "fullUrl": "https://madie.cms.gov/MeasureReport/721d0433-b907-4af7-88b2-391208634dc8",
    "resource": {
      "resourceType": "MeasureReport",
      "id": "721d0433-b907-4af7-88b2-391208634dc8",
      "meta": {
        "profile": [ "http://hl7.org/fhir/us/cqfmeasures/StructureDefinition/test-case-cqfm" ]
      },
      "contained": [ {
        "resourceType": "Parameters",
        "id": "c35b6868-b7ae-42a4-b496-7bc3971f444c-parameters",
        "parameter": [ {
          "name": "subject",
          "valueString": "2c1e6f23-20a1-44c3-8c2a-0bec67c3d2f5"
        } ]
      } ],
      "extension": [ {
        "url": "http://hl7.org/fhir/StructureDefinition/cqf-inputParameters",
        "valueReference": {
          "reference": "#c35b6868-b7ae-42a4-b496-7bc3971f444c-parameters"
        }
      }, {
        "url": "http://hl7.org/fhir/us/cqfmeasures/StructureDefinition/cqfm-testCaseDescription",
        "valueMarkdown": "Principal diagnosis = ischemic stroke, age GT 18\n"
      } ],
      "modifierExtension": [ {
        "url": "http://hl7.org/fhir/us/cqfmeasures/StructureDefinition/cqfm-isTestCase",
        "valueBoolean": true
      } ],
      "status": "complete",
      "type": "individual",
      "measure": "https://madie.cms.gov/Measure/CMS71FHIRSTKAnticoagAFFlutter",
      "period": {
        "start": "2026-01-01",
        "end": "2026-12-31"
      },
      "group": [ {
        "id": "Group_1",
        "population": [ {
          "id": "InitialPopulation_1",
          "code": {
            "coding": [ {
              "system": "http://terminology.hl7.org/CodeSystem/measure-population",
              "code": "initial-population",
              "display": "Initial Population"
            } ]
          },
          "count": 1
        }, {
          "id": "Denominator_1",
          "code": {
            "coding": [ {
              "system": "http://terminology.hl7.org/CodeSystem/measure-population",
              "code": "denominator",
              "display": "Denominator"
            } ]
          },
          "count": 0
        }, {
          "id": "DenominatorExclusion_1",
          "code": {
            "coding": [ {
              "system": "http://terminology.hl7.org/CodeSystem/measure-population",
              "code": "denominator-exclusion",
              "display": "Denominator Exclusion"
            } ]
          },
          "count": 0
        }, {
          "id": "Numerator_1",
          "code": {
            "coding": [ {
              "system": "http://terminology.hl7.org/CodeSystem/measure-population",
              "code": "numerator",
              "display": "Numerator"
            } ]
          },
          "count": 0
        }, {
          "id": "DenominatorException_1",
          "code": {
            "coding": [ {
              "system": "http://terminology.hl7.org/CodeSystem/measure-population",
              "code": "denominator-exception",
              "display": "Denominator Exception"
            } ]
          },
          "count": 0
        } ],
        "measureScore": {
          "value": 0.0
        }
      } ],
      "evaluatedResource": [ {
        "reference": "Patient/2c1e6f23-20a1-44c3-8c2a-0bec67c3d2f5"
      }, {
        "reference": "Encounter/4b934362-a242-4a99-9c33-b170a1fef5ce"
      }, {
        "reference": "Claim/201467e0-c830-4590-a99d-5e02ea887204"
      }, {
        "reference": "Coverage/f9dc9752-8932-4090-96ce-8e6312dcb9a5"
      }, {
        "reference": "Condition/6ac49630-d810-4ab4-b4e7-a27cd0ecca56"
      }, {
        "reference": "Organization/3dd073b9-b933-4a59-b8fd-828e70fd2f36"
      }, {
        "reference": "Practitioner/d9b66378-f6c3-4187-8168-9c0ac322964d"
      } ]
    },
    "request": {
      "method": "PUT",
      "url": "MeasureReport/721d0433-b907-4af7-88b2-391208634dc8"
    }
  } ]
}