{
  "resourceType": "Bundle",
  "id": "633c9d040968f8012250fcac",
  "type": "transaction",
  "entry": [ {
    "fullUrl": "https://madie.cms.gov/Patient/acdea97f-8a2e-4aa3-b51f-768c5ad5ead8",
    "resource": {
      "resourceType": "Patient",
      "id": "acdea97f-8a2e-4aa3-b51f-768c5ad5ead8",
      "meta": {
        "profile": [ "http://hl7.org/fhir/us/qicore/StructureDefinition/qicore-patient" ]
      },
      "text": {
        "status": "generated",
        "div": "<div xmlns=\"http://www.w3.org/1999/xhtml\"><div class=\"hapiHeaderText\">DCtoICU <b>DENEXFAIL </b></div><table class=\"hapiPropertyTable\"><tbody><tr><td>Identifier</td><td>a1386c36da1b287caf9fd1b8d75c10d3</td></tr><tr><td>Date of birth</td><td><span>31 July 1969</span></td></tr></tbody></table></div>"
      },
      "extension": [ {
        "url": "http://hl7.org/fhir/us/core/StructureDefinition/us-core-race",
        "extension": [ {
          "url": "ombCategory",
          "valueCoding": {
            "system": "urn:oid:2.16.840.1.113883.6.238",
            "code": "1002-5",
            "display": "American Indian or Alaska Native",
            "userSelected": true
          }
        }, {
          "url": "text",
          "valueString": "American Indian or Alaska Native"
        } ]
      }, {
        "url": "http://hl7.org/fhir/us/core/StructureDefinition/us-core-ethnicity",
        "extension": [ {
          "url": "ombCategory",
          "valueCoding": {
            "system": "urn:oid:2.16.840.1.113883.6.238",
            "code": "2135-2",
            "display": "Hispanic or Latino",
            "userSelected": true
          }
        }, {
          "url": "text",
          "valueString": "Hispanic or Latino"
        } ]
      } ],
      "identifier": [ {
        "type": {
          "coding": [ {
            "system": "http://terminology.hl7.org/CodeSystem/v2-0203",
            "code": "MR"
          } ]
        },
        "system": "https://bonnie-fhir.healthit.gov/",
        "value": "633c9d040968f8012250fcac"
      } ],
      "active": true,
      "name": [ {
        "use": "usual",
        "family": "DENEXFail",
        "given": [ "DCtoICU" ]
      } ],
      "gender": "male",
      "birthDate": "1970-07-31"
    },
    "request": {
      "method": "PUT",
      "url": "Patient/acdea97f-8a2e-4aa3-b51f-768c5ad5ead8"
    }
  }, {
    "fullUrl": "https://madie.cms.gov/Encounter/670b0880-ffd5-428b-bd9d-238626a21cad",
    "resource": {
      "resourceType": "Encounter",
      "id": "670b0880-ffd5-428b-bd9d-238626a21cad",
      "meta": {
        "profile": [ "http://hl7.org/fhir/us/qicore/StructureDefinition/qicore-encounter" ]
      },
      "status": "finished",
      "class": {
        "system": "http://terminology.hl7.org/CodeSystem/v3-ActCode",
        "code": "EMER",
        "display": "emergency"
      },
      "type": [ {
        "coding": [ {
          "system": "http://snomed.info/sct",
          "code": "4525004"
        } ]
      } ],
      "subject": {
        "reference": "Patient/acdea97f-8a2e-4aa3-b51f-768c5ad5ead8"
      },
      "period": {
        "start": "2026-11-20T07:00:00.000Z",
        "end": "2026-11-20T07:45:00.000Z"
      },
      "length": {
        "value": 0,
        "unit": "days"
      }
    },
    "request": {
      "method": "PUT",
      "url": "Encounter/670b0880-ffd5-428b-bd9d-238626a21cad"
    }
  }, {
    "fullUrl": "https://madie.cms.gov/Encounter/d5cc7e6c-ddc7-48c8-93e3-80531a9f3763",
    "resource": {
      "resourceType": "Encounter",
      "id": "d5cc7e6c-ddc7-48c8-93e3-80531a9f3763",
      "meta": {
        "profile": [ "http://hl7.org/fhir/us/qicore/StructureDefinition/qicore-encounter" ]
      },
      "status": "finished",
      "class": {
        "system": "http://terminology.hl7.org/CodeSystem/v3-ActCode",
        "code": "IMP",
        "display": "inpatient encounter"
      },
      "type": [ {
        "coding": [ {
          "system": "http://snomed.info/sct",
          "code": "32485007"
        } ]
      } ],
      "subject": {
        "reference": "Patient/acdea97f-8a2e-4aa3-b51f-768c5ad5ead8"
      },
      "period": {
        "start": "2026-11-20T08:00:00.000Z",
        "end": "2026-11-24T08:15:00.000Z"
      },
      "length": {
        "value": 4,
        "unit": "days"
      },
      "hospitalization": {
        "dischargeDisposition": {
          "coding": [ {
            "system": "http://cts.nlm.nih.gov/fhir/cs/hsloc",
            "code": "1025-6",
            "display": "Trauma Critical Care"
          } ]
        }
      }
    },
    "request": {
      "method": "PUT",
      "url": "Encounter/d5cc7e6c-ddc7-48c8-93e3-80531a9f3763"
    }
  }, {
    "fullUrl": "https://madie.cms.gov/Claim/8a93a7c4-348d-408a-adae-c62dddc2d9ef",
    "resource": {
      "resourceType": "Claim",
      "id": "8a93a7c4-348d-408a-adae-c62dddc2d9ef",
      "meta": {
        "profile": [ "http://hl7.org/fhir/us/qicore/StructureDefinition/qicore-claim" ]
      },
      "status": "active",
      "type": {
        "coding": [ {
          "system": "http://terminology.hl7.org/CodeSystem/claim-type",
          "code": "institutional"
        } ]
      },
      "use": "claim",
      "patient": {
        "reference": "Patient/acdea97f-8a2e-4aa3-b51f-768c5ad5ead8"
      },
      "created": "2026-12-01",
      "provider": {
        "reference": "Practitioner/64e7829b-db89-4cb0-a866-2f447795b912"
      },
      "priority": {
        "coding": [ {
          "system": "http://terminology.hl7.org/CodeSystem/processpriority",
          "code": "normal"
        } ]
      },
      "diagnosis": [ {
        "sequence": 1,
        "diagnosisCodeableConcept": {
          "coding": [ {
            "system": "http://hl7.org/fhir/sid/icd-10-cm",
            "code": "I63.00"
          } ]
        },
        "type": [ {
          "coding": [ {
            "system": "http://terminology.hl7.org/CodeSystem/ex-diagnosistype",
            "code": "principal"
          } ]
        } ]
      } ],
      "insurance": [ {
        "sequence": 1,
        "focal": true,
        "coverage": {
          "reference": "Coverage/5fa041661c76ba66d9959367"
        }
      } ],
      "item": [ {
        "sequence": 1,
        "diagnosisSequence": [ 1 ],
        "productOrService": {
          "coding": [ {
            "system": "http://terminology.hl7.org/CodeSystem/ex-USCLS",
            "code": "99555"
          } ]
        },
        "encounter": [ {
          "reference": "Encounter/d5cc7e6c-ddc7-48c8-93e3-80531a9f3763"
        } ]
      } ]
    },
    "request": {
      "method": "PUT",
      "url": "Claim/8a93a7c4-348d-408a-adae-c62dddc2d9ef"
    }
  }, {
    "fullUrl": "https://madie.cms.gov/Coverage/78fcf102-0931-4346-94bf-d2e4a66b950d",
    "resource": {
      "resourceType": "Coverage",
      "id": "78fcf102-0931-4346-94bf-d2e4a66b950d",
      "meta": {
        "profile": [ "http://hl7.org/fhir/us/qicore/StructureDefinition/qicore-coverage" ]
      },
      "status": "active",
      "subscriberId": "523435",
      "beneficiary": {
        "reference": "Patient/acdea97f-8a2e-4aa3-b51f-768c5ad5ead8"
      },
      "relationship": {
        "coding": [ {
          "system": "http://terminology.hl7.org/CodeSystem/subscriber-relationship",
          "code": "self"
        } ]
      },
      "payor": [ {
        "reference": "Organization/a2723ce8-9353-42ab-988e-95b4284a8a39"
      } ]
    },
    "request": {
      "method": "PUT",
      "url": "Coverage/78fcf102-0931-4346-94bf-d2e4a66b950d"
    }
  }, {
    "fullUrl": "https://madie.cms.gov/Procedure/db3fd397-7ea1-4124-985c-76ff51e4676f",
    "resource": {
      "resourceType": "Procedure",
      "id": "db3fd397-7ea1-4124-985c-76ff51e4676f",
      "meta": {
        "profile": [ "http://hl7.org/fhir/us/qicore/StructureDefinition/qicore-procedure" ]
      },
      "extension": [ {
        "url": "http://hl7.org/fhir/us/qicore/StructureDefinition/qicore-recorded",
        "valueDateTime": "2026-11-19T13:35:00.000Z"
      } ],
      "status": "completed",
      "code": {
        "coding": [ {
          "system": "http://www.cms.gov/Medicare/Coding/ICD10",
          "code": "02560ZZ"
        }, {
          "system": "http://snomed.info/sct",
          "code": "175095005"
        } ]
      },
      "subject": {
        "reference": "Patient/acdea97f-8a2e-4aa3-b51f-768c5ad5ead8"
      },
      "performedPeriod": {
        "start": "2026-11-19T08:00:00.000Z",
        "end": "2026-11-20T08:15:00.000Z"
      }
    },
    "request": {
      "method": "PUT",
      "url": "Procedure/db3fd397-7ea1-4124-985c-76ff51e4676f"
    }
  }, {
    "fullUrl": "https://madie.cms.gov/Condition/ef49f8cf-2229-4af7-9bfd-7f4dfef57ccc",
    "resource": {
      "resourceType": "Condition",
      "id": "ef49f8cf-2229-4af7-9bfd-7f4dfef57ccc",
      "meta": {
        "profile": [ "http://hl7.org/fhir/us/qicore/StructureDefinition/qicore-condition-encounter-diagnosis" ]
      },
      "clinicalStatus": {
        "coding": [ {
          "system": "http://terminology.hl7.org/CodeSystem/condition-clinical",
          "code": "active"
        } ]
      },
      "verificationStatus": {
        "coding": [ {
          "system": "http://terminology.hl7.org/CodeSystem/condition-ver-status",
          "code": "confirmed"
        } ]
      },
      "category": [ {
        "coding": [ {
          "system": "http://terminology.hl7.org/CodeSystem/condition-category",
          "code": "encounter-diagnosis",
          "display": "Encounter Diagnosis"
        } ]
      } ],
      "code": {
        "coding": [ {
          "system": "http://snomed.info/sct",
          "version": "2021-09",
          "code": "111297002",
          "display": "Nonparalytic stroke (disorder)",
          "userSelected": true
        } ]
      },
      "subject": {
        "reference": "Patient/acdea97f-8a2e-4aa3-b51f-768c5ad5ead8"
      },
      "recordedDate": "2026-10-13T08:00:00.000Z"
    },
    "request": {
      "method": "PUT",
      "url": "Condition/ef49f8cf-2229-4af7-9bfd-7f4dfef57ccc"
    }
  }, {
    "fullUrl": "https://madie.cms.gov/Organization/a2723ce8-9353-42ab-988e-95b4284a8a39",
    "resource": {
      "resourceType": "Organization",
      "id": "a2723ce8-9353-42ab-988e-95b4284a8a39",
      "meta": {
        "profile": [ "http://hl7.org/fhir/us/qicore/StructureDefinition/qicore-organization" ]
      },
      "identifier": [ {
        "use": "temp",
        "system": "urn:oid:2.16.840.1.113883.4.4",
        "value": "21-3259825"
      } ],
      "active": true,
      "type": [ {
        "coding": [ {
          "system": "http://terminology.hl7.org/CodeSystem/organization-type",
          "code": "pay",
          "display": "Payer"
        } ]
      } ],
      "name": "Blue Cross Blue Shield of Texas",
      "telecom": [ {
        "system": "phone",
        "value": "(+1) 972-766-6900"
      } ],
      "address": [ {
        "use": "billing",
        "type": "postal",
        "line": [ "P.O. Box 660044" ],
        "city": "Dallas",
        "state": "TX",
        "postalCode": "75266-0044",
        "country": "USA"
      } ]
    },
    "request": {
      "method": "PUT",
      "url": "Organization/a2723ce8-9353-42ab-988e-95b4284a8a39"
    }
  }, {
    "fullUrl": "https://madie.cms.gov/Practitioner/64e7829b-db89-4cb0-a866-2f447795b912",
    "resource": {
      "resourceType": "Practitioner",
      "id": "64e7829b-db89-4cb0-a866-2f447795b912",
      "meta": {
        "profile": [ "http://hl7.org/fhir/us/qicore/StructureDefinition/qicore-practitioner" ]
      },
      "identifier": [ {
        "system": "http://hl7.org/fhir/sid/us-npi",
        "value": "9999999896"
      } ],
      "name": [ {
        "family": "Evil",
        "prefix": [ "Dr" ]
      } ]
    },
    "request": {
      "method": "PUT",
      "url": "Practitioner/64e7829b-db89-4cb0-a866-2f447795b912"
    }
  }, {
    "fullUrl": "https://madie.cms.gov/MeasureReport/d801e177-6bdb-4142-9526-722781db177a",
    "resource": {
      "resourceType": "MeasureReport",
      "id": "d801e177-6bdb-4142-9526-722781db177a",
      "meta": {
        "profile": [ "http://hl7.org/fhir/us/cqfmeasures/StructureDefinition/test-case-cqfm" ]
      },
      "contained": [ {
        "resourceType": "Parameters",
        "id": "eeaca93b-d3cd-41e6-a39c-7cc857cb8e7f-parameters",
        "parameter": [ {
          "name": "subject",
          "valueString": "acdea97f-8a2e-4aa3-b51f-768c5ad5ead8"
        } ]
      } ],
      "extension": [ {
        "url": "http://hl7.org/fhir/StructureDefinition/cqf-inputParameters",
        "valueReference": {
          "reference": "#eeaca93b-d3cd-41e6-a39c-7cc857cb8e7f-parameters"
        }
      }, {
        "url": "http://hl7.org/fhir/us/cqfmeasures/StructureDefinition/cqfm-testCaseDescription",
        "valueMarkdown": "No discharge status indicated. Testing DENEX logic (intentional fail) with disposition to ICD\n"
      } ],
      "modifierExtension": [ {
        "url": "http://hl7.org/fhir/us/cqfmeasures/StructureDefinition/cqfm-isTestCase",
        "valueBoolean": true
      } ],
      "status": "complete",
      "type": "individual",
      "measure": "https://madie.cms.gov/Measure/CMS71FHIRSTKAnticoagAFFlutter",
      "period": {
        "start": "2026-01-01",
        "end": "2026-12-31"
      },
      "group": [ {
        "id": "Group_1",
        "population": [ {
          "id": "InitialPopulation_1",
          "code": {
            "coding": [ {
              "system": "http://terminology.hl7.org/CodeSystem/measure-population",
              "code": "initial-population",
              "display": "Initial Population"
            } ]
          },
          "count": 1
        }, {
          "id": "Denominator_1",
          "code": {
            "coding": [ {
              "system": "http://terminology.hl7.org/CodeSystem/measure-population",
              "code": "denominator",
              "display": "Denominator"
            } ]
          },
          "count": 1
        }, {
          "id": "DenominatorExclusion_1",
          "code": {
            "coding": [ {
              "system": "http://terminology.hl7.org/CodeSystem/measure-population",
              "code": "denominator-exclusion",
              "display": "Denominator Exclusion"
            } ]
          },
          "count": 0
        }, {
          "id": "Numerator_1",
          "code": {
            "coding": [ {
              "system": "http://terminology.hl7.org/CodeSystem/measure-population",
              "code": "numerator",
              "display": "Numerator"
            } ]
          },
          "count": 0
        }, {
          "id": "DenominatorException_1",
          "code": {
            "coding": [ {
              "system": "http://terminology.hl7.org/CodeSystem/measure-population",
              "code": "denominator-exception",
              "display": "Denominator Exception"
            } ]
          },
          "count": 0
        } ],
        "measureScore": {
          "value": 0.0
        }
      } ],
      "evaluatedResource": [ {
        "reference": "Patient/acdea97f-8a2e-4aa3-b51f-768c5ad5ead8"
      }, {
        "reference": "Encounter/670b0880-ffd5-428b-bd9d-238626a21cad"
      }, {
        "reference": "Encounter/d5cc7e6c-ddc7-48c8-93e3-80531a9f3763"
      }, {
        "reference": "Claim/8a93a7c4-348d-408a-adae-c62dddc2d9ef"
      }, {
        "reference": "Coverage/78fcf102-0931-4346-94bf-d2e4a66b950d"
      }, {
        "reference": "Procedure/db3fd397-7ea1-4124-985c-76ff51e4676f"
      }, {
        "reference": "Condition/ef49f8cf-2229-4af7-9bfd-7f4dfef57ccc"
      }, {
        "reference": "Organization/a2723ce8-9353-42ab-988e-95b4284a8a39"
      }, {
        "reference": "Practitioner/64e7829b-db89-4cb0-a866-2f447795b912"
      } ]
    },
    "request": {
      "method": "PUT",
      "url": "MeasureReport/d801e177-6bdb-4142-9526-722781db177a"
    }
  } ]
}