{
  "resourceType": "Bundle",
  "id": "633c9d040968f8012250fca6",
  "type": "transaction",
  "entry": [ {
    "fullUrl": "https://madie.cms.gov/Patient/e73d1055-c564-4663-9af0-d3ccabeb49c8",
    "resource": {
      "resourceType": "Patient",
      "id": "e73d1055-c564-4663-9af0-d3ccabeb49c8",
      "meta": {
        "profile": [ "http://hl7.org/fhir/us/qicore/StructureDefinition/qicore-patient" ]
      },
      "text": {
        "status": "generated",
        "div": "<div xmlns=\"http://www.w3.org/1999/xhtml\"><div class=\"hapiHeaderText\">CMOdurED_ED=1hrObs=1hrBFEnc <b>DENEXPASS </b></div><table class=\"hapiPropertyTable\"><tbody><tr><td>Identifier</td><td>6154ed3e6029d496bda5b35d3515afbbdc41984dd4c9181d132c9b1c15092843</td></tr><tr><td>Date of birth</td><td><span>18 September 1985</span></td></tr></tbody></table></div>"
      },
      "extension": [ {
        "url": "http://hl7.org/fhir/us/core/StructureDefinition/us-core-race",
        "extension": [ {
          "url": "ombCategory",
          "valueCoding": {
            "system": "urn:oid:2.16.840.1.113883.6.238",
            "code": "1002-5",
            "display": "American Indian or Alaska Native",
            "userSelected": true
          }
        }, {
          "url": "text",
          "valueString": "American Indian or Alaska Native"
        } ]
      }, {
        "url": "http://hl7.org/fhir/us/core/StructureDefinition/us-core-ethnicity",
        "extension": [ {
          "url": "ombCategory",
          "valueCoding": {
            "system": "urn:oid:2.16.840.1.113883.6.238",
            "code": "2135-2",
            "display": "Hispanic or Latino",
            "userSelected": true
          }
        }, {
          "url": "text",
          "valueString": "Hispanic or Latino"
        } ]
      } ],
      "identifier": [ {
        "type": {
          "coding": [ {
            "system": "http://terminology.hl7.org/CodeSystem/v2-0203",
            "code": "MR"
          } ]
        },
        "system": "https://bonnie-fhir.healthit.gov/",
        "value": "633c9d040968f8012250fca6"
      } ],
      "active": true,
      "name": [ {
        "use": "usual",
        "family": "DENEXPass",
        "given": [ "CMOdurED_ED=1hrObs=1hrBFEnc" ]
      } ],
      "gender": "female",
      "birthDate": "1986-09-18"
    },
    "request": {
      "method": "PUT",
      "url": "Patient/e73d1055-c564-4663-9af0-d3ccabeb49c8"
    }
  }, {
    "fullUrl": "https://madie.cms.gov/Condition/ec1310ca-5bce-4a72-8e23-61a89500d60b",
    "resource": {
      "resourceType": "Condition",
      "id": "ec1310ca-5bce-4a72-8e23-61a89500d60b",
      "meta": {
        "profile": [ "http://hl7.org/fhir/us/qicore/StructureDefinition/qicore-condition-problems-health-concerns" ]
      },
      "clinicalStatus": {
        "coding": [ {
          "system": "http://terminology.hl7.org/CodeSystem/condition-clinical",
          "code": "inactive"
        } ]
      },
      "verificationStatus": {
        "coding": [ {
          "system": "http://terminology.hl7.org/CodeSystem/condition-ver-status",
          "code": "confirmed"
        } ]
      },
      "category": [ {
        "coding": [ {
          "system": "http://terminology.hl7.org/CodeSystem/condition-category",
          "code": "problem-list-item"
        } ]
      } ],
      "code": {
        "coding": [ {
          "system": "http://hl7.org/fhir/sid/icd-10-cm",
          "code": "I48.20"
        }, {
          "system": "http://hl7.org/fhir/sid/icd-10-cm",
          "code": "I48.0"
        }, {
          "system": "http://snomed.info/sct",
          "code": "5370000"
        } ]
      },
      "subject": {
        "reference": "Patient/e73d1055-c564-4663-9af0-d3ccabeb49c8"
      },
      "onsetDateTime": "2026-10-01T09:00:00.000Z",
      "abatementDateTime": "2026-10-12T00:15:00.000Z"
    },
    "request": {
      "method": "PUT",
      "url": "Condition/ec1310ca-5bce-4a72-8e23-61a89500d60b"
    }
  }, {
    "fullUrl": "https://madie.cms.gov/Encounter/75fc0dcb-fc72-4f9e-a793-2ecc576549fe",
    "resource": {
      "resourceType": "Encounter",
      "id": "75fc0dcb-fc72-4f9e-a793-2ecc576549fe",
      "meta": {
        "profile": [ "http://hl7.org/fhir/us/qicore/StructureDefinition/qicore-encounter" ]
      },
      "status": "finished",
      "class": {
        "system": "http://terminology.hl7.org/CodeSystem/v3-ActCode",
        "code": "EMER",
        "display": "emergency"
      },
      "type": [ {
        "coding": [ {
          "system": "http://snomed.info/sct",
          "code": "4525004"
        } ]
      } ],
      "subject": {
        "reference": "Patient/e73d1055-c564-4663-9af0-d3ccabeb49c8"
      },
      "period": {
        "start": "2026-09-30T07:59:00.000Z",
        "end": "2026-09-30T08:00:00.000Z"
      },
      "length": {
        "value": 0,
        "unit": "days"
      }
    },
    "request": {
      "method": "PUT",
      "url": "Encounter/75fc0dcb-fc72-4f9e-a793-2ecc576549fe"
    }
  }, {
    "fullUrl": "https://madie.cms.gov/Encounter/def21d38-25d3-475d-aa96-9b345b1771b3",
    "resource": {
      "resourceType": "Encounter",
      "id": "def21d38-25d3-475d-aa96-9b345b1771b3",
      "meta": {
        "profile": [ "http://hl7.org/fhir/us/qicore/StructureDefinition/qicore-encounter" ]
      },
      "status": "finished",
      "class": {
        "system": "http://terminology.hl7.org/CodeSystem/v3-ActCode",
        "code": "OBSENC",
        "display": "observation encounter"
      },
      "type": [ {
        "coding": [ {
          "system": "http://snomed.info/sct",
          "code": "448951000124107"
        } ]
      } ],
      "subject": {
        "reference": "Patient/e73d1055-c564-4663-9af0-d3ccabeb49c8"
      },
      "period": {
        "start": "2026-09-30T09:00:00.000Z",
        "end": "2026-09-30T09:01:00.000Z"
      },
      "length": {
        "value": 0,
        "unit": "days"
      }
    },
    "request": {
      "method": "PUT",
      "url": "Encounter/def21d38-25d3-475d-aa96-9b345b1771b3"
    }
  }, {
    "fullUrl": "https://madie.cms.gov/Encounter/b6c92c8a-093b-45dc-8bf7-d90aec150763",
    "resource": {
      "resourceType": "Encounter",
      "id": "b6c92c8a-093b-45dc-8bf7-d90aec150763",
      "meta": {
        "profile": [ "http://hl7.org/fhir/us/qicore/StructureDefinition/qicore-encounter" ]
      },
      "status": "finished",
      "class": {
        "system": "http://terminology.hl7.org/CodeSystem/v3-ActCode",
        "code": "IMP",
        "display": "inpatient encounter"
      },
      "type": [ {
        "coding": [ {
          "system": "http://snomed.info/sct",
          "code": "32485007"
        } ]
      } ],
      "subject": {
        "reference": "Patient/e73d1055-c564-4663-9af0-d3ccabeb49c8"
      },
      "period": {
        "start": "2026-09-30T10:01:00.000Z",
        "end": "2026-10-12T00:15:00.000Z"
      },
      "length": {
        "value": 12,
        "unit": "days"
      },
      "reasonReference": [ {
        "reference": "Condition/ec1310ca-5bce-4a72-8e23-61a89500d60b"
      } ]
    },
    "request": {
      "method": "PUT",
      "url": "Encounter/b6c92c8a-093b-45dc-8bf7-d90aec150763"
    }
  }, {
    "fullUrl": "https://madie.cms.gov/Claim/48c52f2d-58fb-47f0-8f52-5b523d614681",
    "resource": {
      "resourceType": "Claim",
      "id": "48c52f2d-58fb-47f0-8f52-5b523d614681",
      "meta": {
        "profile": [ "http://hl7.org/fhir/us/qicore/StructureDefinition/qicore-claim" ]
      },
      "status": "active",
      "type": {
        "coding": [ {
          "system": "http://terminology.hl7.org/CodeSystem/claim-type",
          "code": "institutional"
        } ]
      },
      "use": "claim",
      "patient": {
        "reference": "Patient/e73d1055-c564-4663-9af0-d3ccabeb49c8"
      },
      "created": "2026-12-01",
      "provider": {
        "reference": "Practitioner/51f1b70f-4a43-4181-86a1-15a2d9998dad"
      },
      "priority": {
        "coding": [ {
          "system": "http://terminology.hl7.org/CodeSystem/processpriority",
          "code": "normal"
        } ]
      },
      "diagnosis": [ {
        "sequence": 1,
        "diagnosisCodeableConcept": {
          "coding": [ {
            "system": "http://hl7.org/fhir/sid/icd-10-cm",
            "code": "I63.00"
          } ]
        },
        "type": [ {
          "coding": [ {
            "system": "http://terminology.hl7.org/CodeSystem/ex-diagnosistype",
            "code": "principal"
          } ]
        } ]
      } ],
      "insurance": [ {
        "sequence": 1,
        "focal": true,
        "coverage": {
          "reference": "Coverage/5fa041661c76ba66d9959367"
        }
      } ],
      "item": [ {
        "sequence": 1,
        "diagnosisSequence": [ 1 ],
        "productOrService": {
          "coding": [ {
            "system": "http://terminology.hl7.org/CodeSystem/ex-USCLS",
            "code": "99555"
          } ]
        },
        "encounter": [ {
          "reference": "Encounter/b6c92c8a-093b-45dc-8bf7-d90aec150763"
        } ]
      } ]
    },
    "request": {
      "method": "PUT",
      "url": "Claim/48c52f2d-58fb-47f0-8f52-5b523d614681"
    }
  }, {
    "fullUrl": "https://madie.cms.gov/ServiceRequest/43edad43-d3b2-48a7-8259-71f4c272cea5",
    "resource": {
      "resourceType": "ServiceRequest",
      "id": "43edad43-d3b2-48a7-8259-71f4c272cea5",
      "meta": {
        "profile": [ "http://hl7.org/fhir/us/qicore/StructureDefinition/qicore-servicerequest" ]
      },
      "status": "active",
      "intent": "order",
      "code": {
        "coding": [ {
          "system": "http://snomed.info/sct",
          "code": "133918004"
        } ]
      },
      "subject": {
        "reference": "Patient/e73d1055-c564-4663-9af0-d3ccabeb49c8"
      },
      "authoredOn": "2026-09-30T08:00:00.000Z"
    },
    "request": {
      "method": "PUT",
      "url": "ServiceRequest/43edad43-d3b2-48a7-8259-71f4c272cea5"
    }
  }, {
    "fullUrl": "https://madie.cms.gov/Coverage/49f8b54f-1da9-45b8-b056-ddf7e88a03ad",
    "resource": {
      "resourceType": "Coverage",
      "id": "49f8b54f-1da9-45b8-b056-ddf7e88a03ad",
      "meta": {
        "profile": [ "http://hl7.org/fhir/us/qicore/StructureDefinition/qicore-coverage" ]
      },
      "status": "active",
      "subscriberId": "523435",
      "beneficiary": {
        "reference": "Patient/e73d1055-c564-4663-9af0-d3ccabeb49c8"
      },
      "relationship": {
        "coding": [ {
          "system": "http://terminology.hl7.org/CodeSystem/subscriber-relationship",
          "code": "self"
        } ]
      },
      "payor": [ {
        "reference": "Organization/86dd2c74-f3e7-4022-9014-ed204d095266"
      } ]
    },
    "request": {
      "method": "PUT",
      "url": "Coverage/49f8b54f-1da9-45b8-b056-ddf7e88a03ad"
    }
  }, {
    "fullUrl": "https://madie.cms.gov/Condition/fe91141f-60f2-4876-95cf-fc7bc8211d4a",
    "resource": {
      "resourceType": "Condition",
      "id": "fe91141f-60f2-4876-95cf-fc7bc8211d4a",
      "meta": {
        "profile": [ "http://hl7.org/fhir/us/qicore/StructureDefinition/qicore-condition-encounter-diagnosis" ]
      },
      "clinicalStatus": {
        "coding": [ {
          "system": "http://terminology.hl7.org/CodeSystem/condition-clinical",
          "code": "active"
        } ]
      },
      "verificationStatus": {
        "coding": [ {
          "system": "http://terminology.hl7.org/CodeSystem/condition-ver-status",
          "code": "confirmed"
        } ]
      },
      "category": [ {
        "coding": [ {
          "system": "http://terminology.hl7.org/CodeSystem/condition-category",
          "code": "encounter-diagnosis",
          "display": "Encounter Diagnosis"
        } ]
      } ],
      "code": {
        "coding": [ {
          "system": "http://snomed.info/sct",
          "version": "2021-09",
          "code": "111297002",
          "display": "Nonparalytic stroke (disorder)",
          "userSelected": true
        } ]
      },
      "subject": {
        "reference": "Patient/e73d1055-c564-4663-9af0-d3ccabeb49c8"
      },
      "recordedDate": "2026-10-13T08:00:00.000Z"
    },
    "request": {
      "method": "PUT",
      "url": "Condition/fe91141f-60f2-4876-95cf-fc7bc8211d4a"
    }
  }, {
    "fullUrl": "https://madie.cms.gov/Organization/86dd2c74-f3e7-4022-9014-ed204d095266",
    "resource": {
      "resourceType": "Organization",
      "id": "86dd2c74-f3e7-4022-9014-ed204d095266",
      "meta": {
        "profile": [ "http://hl7.org/fhir/us/qicore/StructureDefinition/qicore-organization" ]
      },
      "identifier": [ {
        "use": "temp",
        "system": "urn:oid:2.16.840.1.113883.4.4",
        "value": "21-3259825"
      } ],
      "active": true,
      "type": [ {
        "coding": [ {
          "system": "http://terminology.hl7.org/CodeSystem/organization-type",
          "code": "pay",
          "display": "Payer"
        } ]
      } ],
      "name": "Blue Cross Blue Shield of Texas",
      "telecom": [ {
        "system": "phone",
        "value": "(+1) 972-766-6900"
      } ],
      "address": [ {
        "use": "billing",
        "type": "postal",
        "line": [ "P.O. Box 660044" ],
        "city": "Dallas",
        "state": "TX",
        "postalCode": "75266-0044",
        "country": "USA"
      } ]
    },
    "request": {
      "method": "PUT",
      "url": "Organization/86dd2c74-f3e7-4022-9014-ed204d095266"
    }
  }, {
    "fullUrl": "https://madie.cms.gov/Practitioner/51f1b70f-4a43-4181-86a1-15a2d9998dad",
    "resource": {
      "resourceType": "Practitioner",
      "id": "51f1b70f-4a43-4181-86a1-15a2d9998dad",
      "meta": {
        "profile": [ "http://hl7.org/fhir/us/qicore/StructureDefinition/qicore-practitioner" ]
      },
      "identifier": [ {
        "system": "http://hl7.org/fhir/sid/us-npi",
        "value": "9999999896"
      } ],
      "name": [ {
        "family": "Evil",
        "prefix": [ "Dr" ]
      } ]
    },
    "request": {
      "method": "PUT",
      "url": "Practitioner/51f1b70f-4a43-4181-86a1-15a2d9998dad"
    }
  }, {
    "fullUrl": "https://madie.cms.gov/MeasureReport/7a667e10-3e78-489f-9d16-989baa9c671d",
    "resource": {
      "resourceType": "MeasureReport",
      "id": "7a667e10-3e78-489f-9d16-989baa9c671d",
      "meta": {
        "profile": [ "http://hl7.org/fhir/us/cqfmeasures/StructureDefinition/test-case-cqfm" ]
      },
      "contained": [ {
        "resourceType": "Parameters",
        "id": "4513f0cf-9dee-4c2d-be0a-5e073dd65fa9-parameters",
        "parameter": [ {
          "name": "subject",
          "valueString": "e73d1055-c564-4663-9af0-d3ccabeb49c8"
        } ]
      } ],
      "extension": [ {
        "url": "http://hl7.org/fhir/StructureDefinition/cqf-inputParameters",
        "valueReference": {
          "reference": "#4513f0cf-9dee-4c2d-be0a-5e073dd65fa9-parameters"
        }
      }, {
        "url": "http://hl7.org/fhir/us/cqfmeasures/StructureDefinition/cqfm-testCaseDescription",
        "valueMarkdown": "Patient receives CMO during ED. ED ends 60 min before Obs start and Obs ends 60 min before  inpatient start.  Testing HospitalizationWithObservation function\n"
      } ],
      "modifierExtension": [ {
        "url": "http://hl7.org/fhir/us/cqfmeasures/StructureDefinition/cqfm-isTestCase",
        "valueBoolean": true
      } ],
      "status": "complete",
      "type": "individual",
      "measure": "https://madie.cms.gov/Measure/CMS71FHIRSTKAnticoagAFFlutter",
      "period": {
        "start": "2026-01-01",
        "end": "2026-12-31"
      },
      "group": [ {
        "id": "Group_1",
        "population": [ {
          "id": "InitialPopulation_1",
          "code": {
            "coding": [ {
              "system": "http://terminology.hl7.org/CodeSystem/measure-population",
              "code": "initial-population",
              "display": "Initial Population"
            } ]
          },
          "count": 1
        }, {
          "id": "Denominator_1",
          "code": {
            "coding": [ {
              "system": "http://terminology.hl7.org/CodeSystem/measure-population",
              "code": "denominator",
              "display": "Denominator"
            } ]
          },
          "count": 1
        }, {
          "id": "DenominatorExclusion_1",
          "code": {
            "coding": [ {
              "system": "http://terminology.hl7.org/CodeSystem/measure-population",
              "code": "denominator-exclusion",
              "display": "Denominator Exclusion"
            } ]
          },
          "count": 1
        }, {
          "id": "Numerator_1",
          "code": {
            "coding": [ {
              "system": "http://terminology.hl7.org/CodeSystem/measure-population",
              "code": "numerator",
              "display": "Numerator"
            } ]
          },
          "count": 0
        }, {
          "id": "DenominatorException_1",
          "code": {
            "coding": [ {
              "system": "http://terminology.hl7.org/CodeSystem/measure-population",
              "code": "denominator-exception",
              "display": "Denominator Exception"
            } ]
          },
          "count": 0
        } ],
        "measureScore": {
          "value": 0.0
        }
      } ],
      "evaluatedResource": [ {
        "reference": "Patient/e73d1055-c564-4663-9af0-d3ccabeb49c8"
      }, {
        "reference": "Condition/ec1310ca-5bce-4a72-8e23-61a89500d60b"
      }, {
        "reference": "Encounter/75fc0dcb-fc72-4f9e-a793-2ecc576549fe"
      }, {
        "reference": "Encounter/def21d38-25d3-475d-aa96-9b345b1771b3"
      }, {
        "reference": "Encounter/b6c92c8a-093b-45dc-8bf7-d90aec150763"
      }, {
        "reference": "Claim/48c52f2d-58fb-47f0-8f52-5b523d614681"
      }, {
        "reference": "ServiceRequest/43edad43-d3b2-48a7-8259-71f4c272cea5"
      }, {
        "reference": "Coverage/49f8b54f-1da9-45b8-b056-ddf7e88a03ad"
      }, {
        "reference": "Condition/fe91141f-60f2-4876-95cf-fc7bc8211d4a"
      }, {
        "reference": "Organization/86dd2c74-f3e7-4022-9014-ed204d095266"
      }, {
        "reference": "Practitioner/51f1b70f-4a43-4181-86a1-15a2d9998dad"
      } ]
    },
    "request": {
      "method": "PUT",
      "url": "MeasureReport/7a667e10-3e78-489f-9d16-989baa9c671d"
    }
  } ]
}